   Temp (K)   mole % SiO2  mole % ZnO     wt % SiO2    wt % ZnO     a(SiO2)      a(ZnO)     a(Zn2SiO4)  
     1823.000        0.135       99.865        0.001       99.999   3.5676E-05   9.9601E-01   1.3188E-03
     1823.000        0.271       99.729        0.002       99.998   7.1886E-05   9.9202E-01   2.6360E-03
     1823.000        0.406       99.594        0.003       99.997   1.0864E-04   9.8804E-01   3.9518E-03
     1823.000        0.541       99.459        0.004       99.996   1.4594E-04   9.8406E-01   5.2660E-03
     1823.000        0.676       99.324        0.005       99.995   1.8381E-04   9.8008E-01   6.5788E-03
     1823.000        0.811       99.189        0.006       99.994   2.2224E-04   9.7611E-01   7.8900E-03
     1823.000        0.946       99.054        0.007       99.993   2.6125E-04   9.7214E-01   9.1997E-03
     1823.000        1.081       98.919        0.008       99.992   3.0084E-04   9.6818E-01   1.0508E-02
     1823.000        1.216       98.784        0.009       99.991   3.4104E-04   9.6422E-01   1.1814E-02
     1823.000        1.350       98.650        0.010       99.990   3.8184E-04   9.6026E-01   1.3120E-02
     1823.000        1.485       98.515        0.011       99.989   4.2325E-04   9.5631E-01   1.4423E-02
     1823.000        1.619       98.381        0.012       99.988   4.6529E-04   9.5236E-01   1.5725E-02
     1823.000        1.753       98.247        0.013       99.987   5.0796E-04   9.4842E-01   1.7025E-02
     1823.000        1.887       98.113        0.014       99.986   5.5128E-04   9.4448E-01   1.8324E-02
     1823.000        2.022       97.978        0.015       99.985   5.9526E-04   9.4054E-01   1.9621E-02
     1823.000        2.156       97.844        0.016       99.984   6.3989E-04   9.3661E-01   2.0916E-02
     1823.000        2.290       97.710        0.017       99.983   6.8521E-04   9.3268E-01   2.2210E-02
     1823.000        2.423       97.577        0.018       99.982   7.3122E-04   9.2876E-01   2.3503E-02
     1823.000        2.557       97.443        0.019       99.981   7.7792E-04   9.2484E-01   2.4793E-02
     1823.000        2.691       97.309        0.020       99.980   8.2533E-04   9.2093E-01   2.6082E-02
     1823.000        2.824       97.176        0.021       99.979   8.7348E-04   9.1702E-01   2.7369E-02
     1823.000        2.958       97.042        0.022       99.978   9.2235E-04   9.1311E-01   2.8655E-02
     1823.000        3.091       96.909        0.023       99.977   9.7195E-04   9.0921E-01   2.9939E-02
     1823.000        3.224       96.776        0.024       99.976   1.0223E-03   9.0531E-01   3.1221E-02
     1823.000        3.357       96.643        0.025       99.975   1.0735E-03   9.0142E-01   3.2502E-02
     1823.000        3.491       96.509        0.026       99.974   1.1254E-03   8.9753E-01   3.3780E-02
     1823.000        3.624       96.376        0.027       99.973   1.1781E-03   8.9365E-01   3.5058E-02
     1823.000        3.756       96.244        0.028       99.972   1.2316E-03   8.8977E-01   3.6333E-02
     1823.000        3.889       96.111        0.029       99.971   1.2860E-03   8.8589E-01   3.7607E-02
     1823.000        4.022       95.978        0.030       99.970   1.3412E-03   8.8202E-01   3.8878E-02
     1823.000        4.155       95.845        0.031       99.969   1.3972E-03   8.7816E-01   4.0148E-02
     1823.000        4.287       95.713        0.032       99.968   1.4541E-03   8.7429E-01   4.1417E-02
     1823.000        4.419       95.581        0.033       99.967   1.5119E-03   8.7044E-01   4.2683E-02
     1823.000        4.552       95.448        0.034       99.966   1.5706E-03   8.6658E-01   4.3948E-02
     1823.000        4.684       95.316        0.035       99.965   1.6301E-03   8.6274E-01   4.5211E-02
     1823.000        4.816       95.184        0.036       99.964   1.6906E-03   8.5889E-01   4.6471E-02
     1823.000        4.948       95.052        0.037       99.963   1.7521E-03   8.5505E-01   4.7731E-02
     1823.000        5.080       94.920        0.038       99.962   1.8144E-03   8.5122E-01   4.8988E-02
     1823.000        5.212       94.788        0.039       99.961   1.8778E-03   8.4739E-01   5.0243E-02
     1823.000        5.344       94.656        0.040       99.960   1.9421E-03   8.4357E-01   5.1497E-02
     1823.000        5.475       94.525        0.041       99.959   2.0075E-03   8.3975E-01   5.2748E-02
     1823.000        5.607       94.393        0.042       99.958   2.0738E-03   8.3593E-01   5.3997E-02
     1823.000        5.739       94.261        0.043       99.957   2.1412E-03   8.3212E-01   5.5245E-02
     1823.000        5.870       94.130        0.044       99.956   2.2097E-03   8.2832E-01   5.6491E-02
     1823.000        6.001       93.999        0.045       99.955   2.2792E-03   8.2452E-01   5.7734E-02
     1823.000        6.132       93.868        0.046       99.954   2.3498E-03   8.2072E-01   5.8976E-02
     1823.000        6.264       93.736        0.047       99.953   2.4215E-03   8.1693E-01   6.0215E-02
     1823.000        6.395       93.605        0.048       99.952   2.4943E-03   8.1314E-01   6.1453E-02
     1823.000        6.526       93.474        0.049       99.951   2.5683E-03   8.0936E-01   6.2688E-02
     1823.000        6.656       93.344        0.050       99.950   2.6434E-03   8.0559E-01   6.3922E-02
     1823.000        6.787       93.213        0.051       99.949   2.7197E-03   8.0182E-01   6.5153E-02
     1823.000        6.918       93.082        0.052       99.948   2.7972E-03   7.9805E-01   6.6382E-02
     1823.000        7.048       92.952        0.053       99.947   2.8760E-03   7.9429E-01   6.7609E-02
     1823.000        7.179       92.821        0.054       99.946   2.9560E-03   7.9054E-01   6.8834E-02
     1823.000        7.309       92.691        0.055       99.945   3.0372E-03   7.8679E-01   7.0057E-02
     1823.000        7.440       92.560        0.056       99.944   3.1198E-03   7.8304E-01   7.1278E-02
     1823.000        7.570       92.430        0.057       99.943   3.2036E-03   7.7931E-01   7.2496E-02
     1823.000        7.700       92.300        0.058       99.942   3.2888E-03   7.7557E-01   7.3712E-02
     1823.000        7.830       92.170        0.059       99.941   3.3753E-03   7.7184E-01   7.4926E-02
     1823.000        7.960       92.040        0.060       99.940   3.4632E-03   7.6812E-01   7.6138E-02
     1823.000        8.090       91.910        0.061       99.939   3.5525E-03   7.6440E-01   7.7347E-02
     1823.000        8.220       91.780        0.062       99.938   3.6432E-03   7.6069E-01   7.8554E-02
     1823.000        8.349       91.651        0.063       99.937   3.7354E-03   7.5699E-01   7.9758E-02
     1823.000        8.479       91.521        0.064       99.936   3.8291E-03   7.5329E-01   8.0961E-02
     1823.000        8.608       91.392        0.065       99.935   3.9242E-03   7.4959E-01   8.2161E-02
     1823.000        8.738       91.262        0.066       99.934   4.0209E-03   7.4590E-01   8.3358E-02
     1823.000        8.867       91.133        0.067       99.933   4.1191E-03   7.4222E-01   8.4553E-02
     1823.000        8.996       91.004        0.068       99.932   4.2189E-03   7.3854E-01   8.5745E-02
     1823.000        9.125       90.875        0.069       99.931   4.3203E-03   7.3487E-01   8.6935E-02
     1823.000        9.254       90.746        0.070       99.930   4.4233E-03   7.3121E-01   8.8123E-02
     1823.000        9.383       90.617        0.071       99.929   4.5280E-03   7.2755E-01   8.9308E-02
     1823.000        9.512       90.488        0.072       99.928   4.6344E-03   7.2389E-01   9.0490E-02
     1823.000        9.641       90.359        0.073       99.927   4.7425E-03   7.2025E-01   9.1670E-02
     1823.000        9.770       90.230        0.074       99.926   4.8523E-03   7.1661E-01   9.2847E-02
     1823.000        9.898       90.102        0.075       99.925   4.9639E-03   7.1297E-01   9.4021E-02
     1823.000       10.027       89.973        0.076       99.924   5.0773E-03   7.0934E-01   9.5193E-02
     1823.000       10.155       89.845        0.077       99.923   5.1926E-03   7.0572E-01   9.6362E-02
     1823.000       10.284       89.716        0.078       99.922   5.3097E-03   7.0210E-01   9.7528E-02
     1823.000       10.412       89.588        0.079       99.921   5.4287E-03   6.9849E-01   9.8692E-02
     1823.000       10.540       89.460        0.080       99.920   5.5496E-03   6.9489E-01   9.9852E-02
     1823.000       10.668       89.332        0.081       99.919   5.6726E-03   6.9129E-01   1.0101E-01
     1823.000       10.796       89.204        0.082       99.918   5.7974E-03   6.8771E-01   1.0216E-01
     1823.000       10.924       89.076        0.083       99.917   5.9244E-03   6.8412E-01   1.0332E-01
     1823.000       11.052       88.948        0.084       99.916   6.0534E-03   6.8055E-01   1.0447E-01
     1823.000       11.179       88.821        0.085       99.915   6.1845E-03   6.7698E-01   1.0561E-01
     1823.000       11.307       88.693        0.086       99.914   6.3178E-03   6.7341E-01   1.0676E-01
     1823.000       11.435       88.565        0.087       99.913   6.4532E-03   6.6986E-01   1.0790E-01
     1823.000       11.562       88.438        0.088       99.912   6.5908E-03   6.6631E-01   1.0903E-01
     1823.000       11.689       88.311        0.089       99.911   6.7307E-03   6.6277E-01   1.1017E-01
     1823.000       11.817       88.183        0.090       99.910   6.8729E-03   6.5924E-01   1.1130E-01
     1823.000       11.944       88.056        0.091       99.909   7.0174E-03   6.5571E-01   1.1242E-01
     1823.000       12.071       87.929        0.092       99.908   7.1643E-03   6.5219E-01   1.1355E-01
     1823.000       12.198       87.802        0.093       99.907   7.3135E-03   6.4868E-01   1.1467E-01
     1823.000       12.325       87.675        0.094       99.906   7.4653E-03   6.4517E-01   1.1579E-01
     1823.000       12.452       87.548        0.095       99.905   7.6195E-03   6.4168E-01   1.1690E-01
     1823.000       12.579       87.421        0.096       99.904   7.7762E-03   6.3819E-01   1.1801E-01
     1823.000       12.705       87.295        0.097       99.903   7.9355E-03   6.3470E-01   1.1912E-01
     1823.000       12.832       87.168        0.098       99.902   8.0974E-03   6.3123E-01   1.2022E-01
     1823.000       12.958       87.042        0.099       99.901   8.2620E-03   6.2777E-01   1.2132E-01
     1823.000       13.085       86.915        0.100       99.900   8.4294E-03   6.2431E-01   1.2242E-01
     1823.000       13.211       86.789        0.101       99.899   8.5994E-03   6.2086E-01   1.2351E-01
     1823.000       13.337       86.663        0.102       99.898   8.7722E-03   6.1742E-01   1.2460E-01
     1823.000       13.463       86.537        0.103       99.897   8.9479E-03   6.1398E-01   1.2569E-01
     1823.000       13.589       86.411        0.104       99.896   9.1264E-03   6.1056E-01   1.2677E-01
     1823.000       13.715       86.285        0.105       99.895   9.3079E-03   6.0714E-01   1.2785E-01
     1823.000       13.841       86.159        0.106       99.894   9.4924E-03   6.0374E-01   1.2892E-01
     1823.000       13.967       86.033        0.107       99.893   9.6799E-03   6.0034E-01   1.2999E-01
     1823.000       14.093       85.907        0.108       99.892   9.8705E-03   5.9695E-01   1.3106E-01
     1823.000       14.218       85.782        0.109       99.891   1.0064E-02   5.9356E-01   1.3212E-01
     1823.000       14.344       85.656        0.110       99.890   1.0261E-02   5.9019E-01   1.3318E-01
     1823.000       14.469       85.531        0.111       99.889   1.0461E-02   5.8683E-01   1.3424E-01
     1823.000       14.595       85.405        0.112       99.888   1.0665E-02   5.8347E-01   1.3529E-01
     1823.000       14.720       85.280        0.113       99.887   1.0871E-02   5.8013E-01   1.3633E-01
     1823.000       14.845       85.155        0.114       99.886   1.1082E-02   5.7679E-01   1.3737E-01
     1823.000       14.970       85.030        0.115       99.885   1.1295E-02   5.7347E-01   1.3841E-01
     1823.000       15.095       84.905        0.116       99.884   1.1512E-02   5.7015E-01   1.3945E-01
     1823.000       15.220       84.780        0.117       99.883   1.1733E-02   5.6684E-01   1.4047E-01
     1823.000       15.345       84.655        0.118       99.882   1.1957E-02   5.6355E-01   1.4150E-01
     1823.000       15.470       84.530        0.119       99.881   1.2185E-02   5.6026E-01   1.4252E-01
     1823.000       15.595       84.405        0.120       99.880   1.2417E-02   5.5698E-01   1.4353E-01
     1823.000       15.719       84.281        0.121       99.879   1.2652E-02   5.5371E-01   1.4454E-01
     1823.000       15.844       84.156        0.122       99.878   1.2892E-02   5.5046E-01   1.4555E-01
     1823.000       15.968       84.032        0.123       99.877   1.3135E-02   5.4721E-01   1.4655E-01
     1823.000       16.093       83.907        0.124       99.876   1.3382E-02   5.4397E-01   1.4755E-01
     1823.000       16.217       83.783        0.125       99.875   1.3633E-02   5.4075E-01   1.4854E-01
     1823.000       16.341       83.659        0.126       99.874   1.3888E-02   5.3753E-01   1.4953E-01
     1823.000       16.465       83.535        0.127       99.873   1.4148E-02   5.3433E-01   1.5051E-01
     1823.000       16.589       83.411        0.128       99.872   1.4411E-02   5.3113E-01   1.5148E-01
     1823.000       16.713       83.287        0.129       99.871   1.4679E-02   5.2795E-01   1.5246E-01
     1823.000       16.837       83.163        0.130       99.870   1.4951E-02   5.2478E-01   1.5342E-01
     1823.000       16.961       83.039        0.131       99.869   1.5228E-02   5.2162E-01   1.5438E-01
     1823.000       17.084       82.916        0.132       99.868   1.5508E-02   5.1847E-01   1.5534E-01
     1823.000       17.208       82.792        0.133       99.867   1.5794E-02   5.1534E-01   1.5629E-01
     1823.000       17.332       82.668        0.134       99.866   1.6084E-02   5.1221E-01   1.5723E-01
     1823.000       17.455       82.545        0.135       99.865   1.6379E-02   5.0910E-01   1.5817E-01
     1823.000       17.578       82.422        0.136       99.864   1.6678E-02   5.0599E-01   1.5911E-01
     1823.000       17.702       82.298        0.137       99.863   1.6982E-02   5.0291E-01   1.6004E-01
     1823.000       17.825       82.175        0.138       99.862   1.7291E-02   4.9983E-01   1.6096E-01
     1823.000       17.948       82.052        0.139       99.861   1.7605E-02   4.9676E-01   1.6188E-01
     1823.000       18.071       81.929        0.140       99.860   1.7923E-02   4.9371E-01   1.6279E-01
     1823.000       18.194       81.806        0.141       99.859   1.8247E-02   4.9067E-01   1.6369E-01
     1823.000       18.317       81.683        0.142       99.858   1.8576E-02   4.8764E-01   1.6459E-01
     1823.000       18.439       81.561        0.143       99.857   1.8910E-02   4.8463E-01   1.6549E-01
     1823.000       18.562       81.438        0.144       99.856   1.9249E-02   4.8162E-01   1.6637E-01
     1823.000       18.685       81.315        0.145       99.855   1.9594E-02   4.7864E-01   1.6726E-01
     1823.000       18.807       81.193        0.146       99.854   1.9943E-02   4.7566E-01   1.6813E-01
     1823.000       18.930       81.070        0.147       99.853   2.0298E-02   4.7270E-01   1.6900E-01
     1823.000       19.052       80.948        0.148       99.852   2.0659E-02   4.6975E-01   1.6986E-01
     1823.000       19.174       80.826        0.149       99.851   2.1025E-02   4.6681E-01   1.7072E-01
     1823.000       19.296       80.704        0.150       99.850   2.1397E-02   4.6389E-01   1.7157E-01
     1823.000       19.418       80.582        0.151       99.849   2.1774E-02   4.6098E-01   1.7241E-01
     1823.000       19.540       80.460        0.152       99.848   2.2157E-02   4.5809E-01   1.7325E-01
     1823.000       19.662       80.338        0.153       99.847   2.2546E-02   4.5521E-01   1.7408E-01
     1823.000       19.784       80.216        0.154       99.846   2.2941E-02   4.5234E-01   1.7491E-01
     1823.000       19.906       80.094        0.155       99.845   2.3342E-02   4.4949E-01   1.7572E-01
     1823.000       20.028       79.972        0.156       99.844   2.3748E-02   4.4665E-01   1.7653E-01
     1823.000       20.149       79.851        0.157       99.843   2.4161E-02   4.4383E-01   1.7734E-01
     1823.000       20.271       79.729        0.158       99.842   2.4579E-02   4.4102E-01   1.7813E-01
     1823.000       20.392       79.608        0.159       99.841   2.5004E-02   4.3823E-01   1.7892E-01
     1823.000       20.514       79.486        0.160       99.840   2.5435E-02   4.3545E-01   1.7971E-01
     1823.000       20.635       79.365        0.161       99.839   2.5872E-02   4.3268E-01   1.8048E-01
     1823.000       20.756       79.244        0.162       99.838   2.6316E-02   4.2993E-01   1.8125E-01
     1823.000       20.877       79.123        0.163       99.837   2.6765E-02   4.2720E-01   1.8201E-01
     1823.000       20.998       79.002        0.164       99.836   2.7222E-02   4.2448E-01   1.8277E-01
     1823.000       21.119       78.881        0.165       99.835   2.7684E-02   4.2178E-01   1.8351E-01
     1823.000       21.240       78.760        0.166       99.834   2.8154E-02   4.1909E-01   1.8425E-01
     1823.000       21.361       78.639        0.167       99.833   2.8630E-02   4.1642E-01   1.8498E-01
     1823.000       21.482       78.518        0.168       99.832   2.9112E-02   4.1376E-01   1.8571E-01
     1823.000       21.602       78.398        0.169       99.831   2.9601E-02   4.1112E-01   1.8643E-01
     1823.000       21.723       78.277        0.170       99.830   3.0097E-02   4.0850E-01   1.8714E-01
     1823.000       21.843       78.157        0.171       99.829   3.0599E-02   4.0589E-01   1.8784E-01
     1823.000       21.964       78.036        0.172       99.828   3.1109E-02   4.0329E-01   1.8853E-01
     1823.000       22.084       77.916        0.173       99.827   3.1625E-02   4.0072E-01   1.8922E-01
     1823.000       22.204       77.796        0.174       99.826   3.2148E-02   3.9816E-01   1.8990E-01
     1823.000       22.324       77.676        0.175       99.825   3.2678E-02   3.9561E-01   1.9057E-01
     1823.000       22.444       77.556        0.176       99.824   3.3215E-02   3.9308E-01   1.9123E-01
     1823.000       22.564       77.436        0.177       99.823   3.3759E-02   3.9057E-01   1.9189E-01
     1823.000       22.684       77.316        0.178       99.822   3.4310E-02   3.8808E-01   1.9254E-01
     1823.000       22.804       77.196        0.179       99.821   3.4868E-02   3.8560E-01   1.9318E-01
     1823.000       22.924       77.076        0.180       99.820   3.5433E-02   3.8313E-01   1.9381E-01
     1823.000       23.044       76.956        0.181       99.819   3.6006E-02   3.8069E-01   1.9443E-01
     1823.000       23.163       76.837        0.182       99.818   3.6585E-02   3.7826E-01   1.9505E-01
     1823.000       23.283       76.717        0.183       99.817   3.7172E-02   3.7585E-01   1.9566E-01
     1823.000       23.402       76.598        0.184       99.816   3.7766E-02   3.7345E-01   1.9626E-01
     1823.000       23.521       76.479        0.185       99.815   3.8367E-02   3.7108E-01   1.9685E-01
     1823.000       23.641       76.359        0.186       99.814   3.8975E-02   3.6871E-01   1.9744E-01
     1823.000       23.760       76.240        0.187       99.813   3.9591E-02   3.6637E-01   1.9801E-01
     1823.000       23.879       76.121        0.188       99.812   4.0214E-02   3.6404E-01   1.9858E-01
     1823.000       23.998       76.002        0.189       99.811   4.0844E-02   3.6173E-01   1.9914E-01
     1823.000       24.117       75.883        0.190       99.810   4.1482E-02   3.5944E-01   1.9969E-01
     1823.000       24.236       75.764        0.191       99.809   4.2126E-02   3.5716E-01   2.0024E-01
     1823.000       24.355       75.645        0.192       99.808   4.2779E-02   3.5490E-01   2.0077E-01
     1823.000       24.473       75.527        0.193       99.807   4.3438E-02   3.5266E-01   2.0130E-01
     1823.000       24.592       75.408        0.194       99.806   4.4105E-02   3.5043E-01   2.0182E-01
     1823.000       24.711       75.289        0.195       99.805   4.4780E-02   3.4823E-01   2.0233E-01
     1823.000       24.829       75.171        0.196       99.804   4.5461E-02   3.4604E-01   2.0283E-01
     1823.000       24.947       75.053        0.197       99.803   4.6150E-02   3.4386E-01   2.0333E-01
     1823.000       25.066       74.934        0.198       99.802   4.6846E-02   3.4170E-01   2.0382E-01
     1823.000       25.184       74.816        0.199       99.801   4.7550E-02   3.3956E-01   2.0429E-01
     1823.000       25.302       74.698        0.200       99.800   4.8261E-02   3.3744E-01   2.0477E-01
     1823.000       25.420       74.580        0.201       99.799   4.8980E-02   3.3534E-01   2.0523E-01
     1823.000       25.538       74.462        0.202       99.798   4.9705E-02   3.3325E-01   2.0568E-01
     1823.000       25.656       74.344        0.203       99.797   5.0438E-02   3.3118E-01   2.0613E-01
     1823.000       25.774       74.226        0.204       99.796   5.1179E-02   3.2912E-01   2.0657E-01
     1823.000       25.892       74.108        0.205       99.795   5.1927E-02   3.2708E-01   2.0700E-01
     1823.000       26.010       73.990        0.206       99.794   5.2681E-02   3.2506E-01   2.0742E-01
     1823.000       26.127       73.873        0.207       99.793   5.3444E-02   3.2306E-01   2.0783E-01
     1823.000       26.245       73.755        0.208       99.792   5.4213E-02   3.2107E-01   2.0824E-01
     1823.000       26.362       73.638        0.209       99.791   5.4990E-02   3.1910E-01   2.0864E-01
     1823.000       26.480       73.520        0.210       99.790   5.5773E-02   3.1714E-01   2.0903E-01
     1823.000       26.597       73.403        0.211       99.789   5.6564E-02   3.1521E-01   2.0941E-01
     1823.000       26.714       73.286        0.212       99.788   5.7363E-02   3.1329E-01   2.0978E-01
     1823.000       26.831       73.169        0.213       99.787   5.8168E-02   3.1138E-01   2.1015E-01
     1823.000       26.948       73.052        0.214       99.786   5.8980E-02   3.0949E-01   2.1051E-01
     1823.000       27.065       72.935        0.215       99.785   5.9799E-02   3.0762E-01   2.1086E-01
     1823.000       27.182       72.818        0.216       99.784   6.0625E-02   3.0577E-01   2.1120E-01
     1823.000       27.299       72.701        0.217       99.783   6.1459E-02   3.0393E-01   2.1154E-01
     1823.000       27.416       72.584        0.218       99.782   6.2299E-02   3.0211E-01   2.1186E-01
     1823.000       27.533       72.467        0.219       99.781   6.3146E-02   3.0030E-01   2.1218E-01
     1823.000       27.649       72.351        0.220       99.780   6.4000E-02   2.9851E-01   2.1250E-01
     1823.000       27.766       72.234        0.221       99.779   6.4861E-02   2.9673E-01   2.1280E-01
     1823.000       27.882       72.118        0.222       99.778   6.5728E-02   2.9497E-01   2.1310E-01
     1823.000       27.999       72.001        0.223       99.777   6.6602E-02   2.9323E-01   2.1339E-01
     1823.000       28.115       71.885        0.224       99.776   6.7483E-02   2.9150E-01   2.1367E-01
     1823.000       28.231       71.769        0.225       99.775   6.8370E-02   2.8979E-01   2.1395E-01
     1823.000       28.347       71.653        0.226       99.774   6.9265E-02   2.8810E-01   2.1421E-01
     1823.000       28.463       71.537        0.227       99.773   7.0165E-02   2.8641E-01   2.1447E-01
     1823.000       28.579       71.421        0.228       99.772   7.1072E-02   2.8475E-01   2.1473E-01
     1823.000       28.695       71.305        0.229       99.771   7.1986E-02   2.8310E-01   2.1497E-01
     1823.000       28.811       71.189        0.230       99.770   7.2906E-02   2.8146E-01   2.1521E-01
     1823.000       28.927       71.073        0.231       99.769   7.3832E-02   2.7984E-01   2.1544E-01
     1823.000       29.043       70.957        0.232       99.768   7.4765E-02   2.7824E-01   2.1567E-01
     1823.000       29.158       70.842        0.233       99.767   7.5704E-02   2.7664E-01   2.1588E-01
     1823.000       29.274       70.726        0.234       99.766   7.6648E-02   2.7507E-01   2.1609E-01
     1823.000       29.389       70.611        0.235       99.765   7.7599E-02   2.7351E-01   2.1630E-01
     1823.000       29.505       70.495        0.236       99.764   7.8557E-02   2.7196E-01   2.1649E-01
     1823.000       29.620       70.380        0.237       99.763   7.9519E-02   2.7043E-01   2.1668E-01
     1823.000       29.735       70.265        0.238       99.762   8.0489E-02   2.6891E-01   2.1687E-01
     1823.000       29.850       70.150        0.239       99.761   8.1464E-02   2.6740E-01   2.1704E-01
     1823.000       29.965       70.035        0.240       99.760   8.2445E-02   2.6591E-01   2.1722E-01
     1823.000       30.080       69.920        0.241       99.759   8.3431E-02   2.6443E-01   2.1738E-01
     1823.000       30.195       69.805        0.242       99.758   8.4423E-02   2.6297E-01   2.1754E-01
     1823.000       30.310       69.690        0.243       99.757   8.5422E-02   2.6152E-01   2.1769E-01
     1823.000       30.425       69.575        0.244       99.756   8.6425E-02   2.6008E-01   2.1783E-01
     1823.000       30.540       69.460        0.245       99.755   8.7434E-02   2.5866E-01   2.1797E-01
     1823.000       30.654       69.346        0.246       99.754   8.8449E-02   2.5725E-01   2.1810E-01
     1823.000       30.769       69.231        0.247       99.753   8.9469E-02   2.5585E-01   2.1823E-01
     1823.000       30.883       69.117        0.248       99.752   9.0494E-02   2.5447E-01   2.1835E-01
     1823.000       30.998       69.002        0.249       99.751   9.1525E-02   2.5310E-01   2.1846E-01
     1823.000       31.112       68.888        0.250       99.750   9.2561E-02   2.5174E-01   2.1857E-01
     1823.000       31.227       68.773        0.251       99.749   9.3602E-02   2.5039E-01   2.1867E-01
     1823.000       31.341       68.659        0.252       99.748   9.4648E-02   2.4906E-01   2.1876E-01
     1823.000       31.455       68.545        0.253       99.747   9.5700E-02   2.4774E-01   2.1885E-01
     1823.000       31.569       68.431        0.254       99.746   9.6756E-02   2.4643E-01   2.1894E-01
     1823.000       31.683       68.317        0.255       99.745   9.7817E-02   2.4513E-01   2.1902E-01
     1823.000       31.797       68.203        0.256       99.744   9.8883E-02   2.4385E-01   2.1909E-01
     1823.000       31.911       68.089        0.257       99.743   9.9954E-02   2.4258E-01   2.1916E-01
     1823.000       32.024       67.976        0.258       99.742   1.0103E-01   2.4131E-01   2.1922E-01
     1823.000       32.138       67.862        0.259       99.741   1.0211E-01   2.4006E-01   2.1927E-01
     1823.000       32.252       67.748        0.260       99.740   1.0320E-01   2.3883E-01   2.1933E-01
     1823.000       32.365       67.635        0.261       99.739   1.0429E-01   2.3760E-01   2.1937E-01
     1823.000       32.479       67.521        0.262       99.738   1.0538E-01   2.3639E-01   2.1941E-01
     1823.000       32.592       67.408        0.263       99.737   1.0648E-01   2.3518E-01   2.1945E-01
     1823.000       32.705       67.295        0.264       99.736   1.0758E-01   2.3399E-01   2.1948E-01
     1823.000       32.818       67.182        0.265       99.735   1.0869E-01   2.3281E-01   2.1950E-01
     1823.000       32.932       67.068        0.266       99.734   1.0980E-01   2.3163E-01   2.1952E-01
     1823.000       33.045       66.955        0.267       99.733   1.1092E-01   2.3048E-01   2.1954E-01
     1823.000       33.158       66.842        0.268       99.732   1.1204E-01   2.2933E-01   2.1955E-01
     1823.000       33.271       66.729        0.269       99.731   1.1316E-01   2.2819E-01   2.1955E-01
     1823.000       33.384       66.616        0.270       99.730   1.1428E-01   2.2707E-01   2.1955E-01
     1823.000       33.496       66.504        0.271       99.729   1.1541E-01   2.2595E-01   2.1955E-01
     1823.000       33.609       66.391        0.272       99.728   1.1655E-01   2.2484E-01   2.1954E-01
     1823.000       33.722       66.278        0.273       99.727   1.1769E-01   2.2374E-01   2.1952E-01
     1823.000       33.834       66.166        0.274       99.726   1.1883E-01   2.2265E-01   2.1951E-01
     1823.000       33.947       66.053        0.275       99.725   1.1998E-01   2.2157E-01   2.1948E-01
     1823.000       34.059       65.941        0.276       99.724   1.2113E-01   2.2050E-01   2.1946E-01
     1823.000       34.172       65.828        0.277       99.723   1.2229E-01   2.1944E-01   2.1942E-01
     1823.000       34.284       65.716        0.278       99.722   1.2345E-01   2.1839E-01   2.1939E-01
     1823.000       34.396       65.604        0.279       99.721   1.2461E-01   2.1735E-01   2.1935E-01
     1823.000       34.508       65.492        0.280       99.720   1.2577E-01   2.1632E-01   2.1930E-01
     1823.000       34.620       65.380        0.281       99.719   1.2694E-01   2.1530E-01   2.1925E-01
     1823.000       34.732       65.268        0.282       99.718   1.2812E-01   2.1428E-01   2.1920E-01
     1823.000       34.844       65.156        0.283       99.717   1.2929E-01   2.1328E-01   2.1914E-01
     1823.000       34.956       65.044        0.284       99.716   1.3047E-01   2.1228E-01   2.1908E-01
     1823.000       35.068       64.932        0.285       99.715   1.3166E-01   2.1129E-01   2.1902E-01
     1823.000       35.180       64.820        0.286       99.714   1.3284E-01   2.1032E-01   2.1895E-01
     1823.000       35.291       64.709        0.287       99.713   1.3403E-01   2.0935E-01   2.1887E-01
     1823.000       35.403       64.597        0.288       99.712   1.3522E-01   2.0838E-01   2.1880E-01
     1823.000       35.514       64.486        0.289       99.711   1.3642E-01   2.0743E-01   2.1872E-01
     1823.000       35.626       64.374        0.290       99.710   1.3762E-01   2.0648E-01   2.1863E-01
     1823.000       35.737       64.263        0.291       99.709   1.3882E-01   2.0555E-01   2.1854E-01
     1823.000       35.848       64.152        0.292       99.708   1.4002E-01   2.0462E-01   2.1845E-01
     1823.000       35.959       64.041        0.293       99.707   1.4123E-01   2.0370E-01   2.1836E-01
     1823.000       36.071       63.929        0.294       99.706   1.4244E-01   2.0278E-01   2.1826E-01
     1823.000       36.182       63.818        0.295       99.705   1.4366E-01   2.0188E-01   2.1815E-01
     1823.000       36.293       63.707        0.296       99.704   1.4487E-01   2.0098E-01   2.1805E-01
     1823.000       36.404       63.596        0.297       99.703   1.4609E-01   2.0009E-01   2.1794E-01
     1823.000       36.514       63.486        0.298       99.702   1.4731E-01   1.9921E-01   2.1783E-01
     1823.000       36.625       63.375        0.299       99.701   1.4854E-01   1.9833E-01   2.1771E-01
     1823.000       36.736       63.264        0.300       99.700   1.4976E-01   1.9746E-01   2.1759E-01
     1823.000       36.847       63.153        0.301       99.699   1.5099E-01   1.9660E-01   2.1747E-01
     1823.000       36.957       63.043        0.302       99.698   1.5222E-01   1.9575E-01   2.1734E-01
     1823.000       37.068       62.932        0.303       99.697   1.5346E-01   1.9490E-01   2.1721E-01
     1823.000       37.178       62.822        0.304       99.696   1.5469E-01   1.9406E-01   2.1708E-01
     1823.000       37.288       62.712        0.305       99.695   1.5593E-01   1.9323E-01   2.1695E-01
     1823.000       37.399       62.601        0.306       99.694   1.5717E-01   1.9241E-01   2.1681E-01
     1823.000       37.509       62.491        0.307       99.693   1.5842E-01   1.9159E-01   2.1667E-01
     1823.000       37.619       62.381        0.308       99.692   1.5966E-01   1.9077E-01   2.1652E-01
     1823.000       37.729       62.271        0.309       99.691   1.6091E-01   1.8997E-01   2.1637E-01
     1823.000       37.839       62.161        0.310       99.690   1.6216E-01   1.8917E-01   2.1622E-01
     1823.000       37.949       62.051        0.311       99.689   1.6341E-01   1.8837E-01   2.1607E-01
     1823.000       38.059       61.941        0.312       99.688   1.6467E-01   1.8759E-01   2.1591E-01
     1823.000       38.169       61.831        0.313       99.687   1.6592E-01   1.8681E-01   2.1576E-01
     1823.000       38.278       61.722        0.314       99.686   1.6718E-01   1.8603E-01   2.1559E-01
     1823.000       38.388       61.612        0.315       99.685   1.6844E-01   1.8527E-01   2.1543E-01
     1823.000       38.498       61.502        0.316       99.684   1.6971E-01   1.8450E-01   2.1526E-01
     1823.000       38.607       61.393        0.317       99.683   1.7097E-01   1.8375E-01   2.1509E-01
     1823.000       38.717       61.283        0.318       99.682   1.7224E-01   1.8300E-01   2.1492E-01
     1823.000       38.826       61.174        0.319       99.681   1.7351E-01   1.8225E-01   2.1475E-01
     1823.000       38.935       61.065        0.320       99.680   1.7478E-01   1.8151E-01   2.1457E-01
     1823.000       39.044       60.956        0.321       99.679   1.7605E-01   1.8078E-01   2.1439E-01
     1823.000       39.154       60.846        0.322       99.678   1.7732E-01   1.8006E-01   2.1421E-01
     1823.000       39.263       60.737        0.323       99.677   1.7860E-01   1.7933E-01   2.1402E-01
     1823.000       39.372       60.628        0.324       99.676   1.7988E-01   1.7862E-01   2.1384E-01
     1823.000       39.481       60.519        0.325       99.675   1.8115E-01   1.7791E-01   2.1365E-01
     1823.000       39.590       60.410        0.326       99.674   1.8243E-01   1.7720E-01   2.1345E-01
     1823.000       39.698       60.302        0.327       99.673   1.8372E-01   1.7650E-01   2.1326E-01
     1823.000       39.807       60.193        0.328       99.672   1.8500E-01   1.7581E-01   2.1306E-01
     1823.000       39.916       60.084        0.329       99.671   1.8629E-01   1.7512E-01   2.1286E-01
     1823.000       40.024       59.976        0.330       99.670   1.8757E-01   1.7443E-01   2.1266E-01
     1823.000       40.133       59.867        0.331       99.669   1.8886E-01   1.7376E-01   2.1246E-01
     1823.000       40.241       59.759        0.332       99.668   1.9015E-01   1.7308E-01   2.1226E-01
     1823.000       40.350       59.650        0.333       99.667   1.9144E-01   1.7241E-01   2.1205E-01
     1823.000       40.458       59.542        0.334       99.666   1.9274E-01   1.7175E-01   2.1184E-01
     1823.000       40.566       59.434        0.335       99.665   1.9403E-01   1.7109E-01   2.1163E-01
     1823.000       40.675       59.325        0.336       99.664   1.9533E-01   1.7043E-01   2.1141E-01
     1823.000       40.783       59.217        0.337       99.663   1.9662E-01   1.6978E-01   2.1120E-01
     1823.000       40.891       59.109        0.338       99.662   1.9792E-01   1.6914E-01   2.1098E-01
     1823.000       40.999       59.001        0.339       99.661   1.9922E-01   1.6850E-01   2.1076E-01
     1823.000       41.107       58.893        0.340       99.660   2.0052E-01   1.6786E-01   2.1054E-01
     1823.000       41.214       58.786        0.341       99.659   2.0182E-01   1.6723E-01   2.1031E-01
     1823.000       41.322       58.678        0.342       99.658   2.0313E-01   1.6660E-01   2.1009E-01
     1823.000       41.430       58.570        0.343       99.657   2.0443E-01   1.6598E-01   2.0986E-01
     1823.000       41.538       58.462        0.344       99.656   2.0574E-01   1.6536E-01   2.0963E-01
     1823.000       41.645       58.355        0.345       99.655   2.0704E-01   1.6475E-01   2.0940E-01
     1823.000       41.753       58.247        0.346       99.654   2.0835E-01   1.6414E-01   2.0917E-01
     1823.000       41.860       58.140        0.347       99.653   2.0966E-01   1.6354E-01   2.0893E-01
     1823.000       41.968       58.032        0.348       99.652   2.1097E-01   1.6294E-01   2.0870E-01
     1823.000       42.075       57.925        0.349       99.651   2.1228E-01   1.6234E-01   2.0846E-01
     1823.000       42.182       57.818        0.350       99.650   2.1359E-01   1.6175E-01   2.0822E-01
     1823.000       42.289       57.711        0.351       99.649   2.1491E-01   1.6116E-01   2.0798E-01
     1823.000       42.396       57.604        0.352       99.648   2.1622E-01   1.6057E-01   2.0773E-01
     1823.000       42.503       57.497        0.353       99.647   2.1754E-01   1.5999E-01   2.0749E-01
     1823.000       42.610       57.390        0.354       99.646   2.1885E-01   1.5942E-01   2.0724E-01
     1823.000       42.717       57.283        0.355       99.645   2.2017E-01   1.5884E-01   2.0699E-01
     1823.000       42.824       57.176        0.356       99.644   2.2149E-01   1.5827E-01   2.0674E-01
     1823.000       42.931       57.069        0.357       99.643   2.2281E-01   1.5771E-01   2.0649E-01
     1823.000       43.038       56.962        0.358       99.642   2.2413E-01   1.5715E-01   2.0624E-01
     1823.000       43.144       56.856        0.359       99.641   2.2545E-01   1.5659E-01   2.0599E-01
     1823.000       43.251       56.749        0.360       99.640   2.2677E-01   1.5604E-01   2.0573E-01
     1823.000       43.357       56.643        0.361       99.639   2.2809E-01   1.5549E-01   2.0547E-01
     1823.000       43.464       56.536        0.362       99.638   2.2941E-01   1.5494E-01   2.0521E-01
     1823.000       43.570       56.430        0.363       99.637   2.3074E-01   1.5440E-01   2.0495E-01
     1823.000       43.676       56.324        0.364       99.636   2.3206E-01   1.5386E-01   2.0469E-01
     1823.000       43.783       56.217        0.365       99.635   2.3339E-01   1.5332E-01   2.0443E-01
     1823.000       43.889       56.111        0.366       99.634   2.3471E-01   1.5279E-01   2.0417E-01
     1823.000       43.995       56.005        0.367       99.633   2.3604E-01   1.5226E-01   2.0390E-01
     1823.000       44.101       55.899        0.368       99.632   2.3737E-01   1.5173E-01   2.0363E-01
     1823.000       44.207       55.793        0.369       99.631   2.3870E-01   1.5121E-01   2.0336E-01
     1823.000       44.313       55.687        0.370       99.630   2.4003E-01   1.5069E-01   2.0309E-01
     1823.000       44.419       55.581        0.371       99.629   2.4136E-01   1.5018E-01   2.0282E-01
     1823.000       44.524       55.476        0.372       99.628   2.4269E-01   1.4966E-01   2.0255E-01
     1823.000       44.630       55.370        0.373       99.627   2.4402E-01   1.4915E-01   2.0228E-01
     1823.000       44.736       55.264        0.374       99.626   2.4535E-01   1.4865E-01   2.0200E-01
     1823.000       44.841       55.159        0.375       99.625   2.4668E-01   1.4814E-01   2.0173E-01
     1823.000       44.947       55.053        0.376       99.624   2.4801E-01   1.4764E-01   2.0145E-01
     1823.000       45.052       54.948        0.377       99.623   2.4934E-01   1.4715E-01   2.0117E-01
     1823.000       45.157       54.843        0.378       99.622   2.5068E-01   1.4665E-01   2.0089E-01
     1823.000       45.263       54.737        0.379       99.621   2.5201E-01   1.4616E-01   2.0061E-01
     1823.000       45.368       54.632        0.380       99.620   2.5335E-01   1.4567E-01   2.0033E-01
     1823.000       45.473       54.527        0.381       99.619   2.5468E-01   1.4519E-01   2.0004E-01
     1823.000       45.578       54.422        0.382       99.618   2.5602E-01   1.4471E-01   1.9976E-01
     1823.000       45.683       54.317        0.383       99.617   2.5735E-01   1.4423E-01   1.9947E-01
     1823.000       45.788       54.212        0.384       99.616   2.5869E-01   1.4375E-01   1.9919E-01
     1823.000       45.893       54.107        0.385       99.615   2.6003E-01   1.4328E-01   1.9890E-01
     1823.000       45.998       54.002        0.386       99.614   2.6136E-01   1.4281E-01   1.9861E-01
     1823.000       46.103       53.897        0.387       99.613   2.6270E-01   1.4234E-01   1.9832E-01
     1823.000       46.207       53.793        0.388       99.612   2.6404E-01   1.4187E-01   1.9803E-01
     1823.000       46.312       53.688        0.389       99.611   2.6538E-01   1.4141E-01   1.9774E-01
     1823.000       46.417       53.583        0.390       99.610   2.6672E-01   1.4095E-01   1.9744E-01
     1823.000       46.521       53.479        0.391       99.609   2.6806E-01   1.4049E-01   1.9715E-01
     1823.000       46.626       53.374        0.392       99.608   2.6940E-01   1.4004E-01   1.9685E-01
     1823.000       46.730       53.270        0.393       99.607   2.7073E-01   1.3959E-01   1.9656E-01
     1823.000       46.834       53.166        0.394       99.606   2.7207E-01   1.3914E-01   1.9626E-01
     1823.000       46.939       53.061        0.395       99.605   2.7341E-01   1.3869E-01   1.9596E-01
     1823.000       47.043       52.957        0.396       99.604   2.7476E-01   1.3825E-01   1.9567E-01
     1823.000       47.147       52.853        0.397       99.603   2.7610E-01   1.3780E-01   1.9537E-01
     1823.000       47.251       52.749        0.398       99.602   2.7744E-01   1.3737E-01   1.9506E-01
     1823.000       47.355       52.645        0.399       99.601   2.7878E-01   1.3693E-01   1.9476E-01
     1823.000       47.459       52.541        0.400       99.600   2.8012E-01   1.3649E-01   1.9446E-01
     1823.000       47.563       52.437        0.401       99.599   2.8146E-01   1.3606E-01   1.9416E-01
     1823.000       47.667       52.333        0.402       99.598   2.8280E-01   1.3563E-01   1.9385E-01
     1823.000       47.770       52.230        0.403       99.597   2.8415E-01   1.3521E-01   1.9355E-01
     1823.000       47.874       52.126        0.404       99.596   2.8549E-01   1.3478E-01   1.9324E-01
     1823.000       47.978       52.022        0.405       99.595   2.8683E-01   1.3436E-01   1.9294E-01
     1823.000       48.081       51.919        0.406       99.594   2.8818E-01   1.3394E-01   1.9263E-01
     1823.000       48.185       51.815        0.407       99.593   2.8952E-01   1.3352E-01   1.9232E-01
     1823.000       48.288       51.712        0.408       99.592   2.9086E-01   1.3310E-01   1.9201E-01
     1823.000       48.391       51.609        0.409       99.591   2.9221E-01   1.3269E-01   1.9170E-01
     1823.000       48.495       51.505        0.410       99.590   2.9355E-01   1.3228E-01   1.9139E-01
     1823.000       48.598       51.402        0.411       99.589   2.9489E-01   1.3187E-01   1.9108E-01
     1823.000       48.701       51.299        0.412       99.588   2.9624E-01   1.3146E-01   1.9077E-01
     1823.000       48.804       51.196        0.413       99.587   2.9758E-01   1.3106E-01   1.9045E-01
     1823.000       48.907       51.093        0.414       99.586   2.9892E-01   1.3065E-01   1.9014E-01
     1823.000       49.010       50.990        0.415       99.585   3.0027E-01   1.3025E-01   1.8982E-01
     1823.000       49.113       50.887        0.416       99.584   3.0161E-01   1.2986E-01   1.8951E-01
     1823.000       49.216       50.784        0.417       99.583   3.0296E-01   1.2946E-01   1.8919E-01
     1823.000       49.319       50.681        0.418       99.582   3.0430E-01   1.2906E-01   1.8888E-01
     1823.000       49.421       50.579        0.419       99.581   3.0565E-01   1.2867E-01   1.8856E-01
     1823.000       49.524       50.476        0.420       99.580   3.0699E-01   1.2828E-01   1.8824E-01
     1823.000       49.627       50.373        0.421       99.579   3.0834E-01   1.2789E-01   1.8792E-01
     1823.000       49.729       50.271        0.422       99.578   3.0968E-01   1.2751E-01   1.8760E-01
     1823.000       49.832       50.168        0.423       99.577   3.1102E-01   1.2712E-01   1.8728E-01
     1823.000       49.934       50.066        0.424       99.576   3.1237E-01   1.2674E-01   1.8696E-01
     1823.000       50.036       49.964        0.425       99.575   3.1371E-01   1.2636E-01   1.8664E-01
     1823.000       50.139       49.861        0.426       99.574   3.1506E-01   1.2598E-01   1.8632E-01
     1823.000       50.241       49.759        0.427       99.573   3.1640E-01   1.2560E-01   1.8600E-01
     1823.000       50.343       49.657        0.428       99.572   3.1775E-01   1.2523E-01   1.8567E-01
     1823.000       50.445       49.555        0.429       99.571   3.1909E-01   1.2486E-01   1.8535E-01
     1823.000       50.547       49.453        0.430       99.570   3.2044E-01   1.2448E-01   1.8503E-01
     1823.000       50.649       49.351        0.431       99.569   3.2178E-01   1.2411E-01   1.8470E-01
     1823.000       50.751       49.249        0.432       99.568   3.2313E-01   1.2375E-01   1.8437E-01
     1823.000       50.853       49.147        0.433       99.567   3.2447E-01   1.2338E-01   1.8405E-01
     1823.000       50.955       49.045        0.434       99.566   3.2582E-01   1.2302E-01   1.8372E-01
     1823.000       51.056       48.944        0.435       99.565   3.2716E-01   1.2265E-01   1.8339E-01
     1823.000       51.158       48.842        0.436       99.564   3.2851E-01   1.2229E-01   1.8307E-01
     1823.000       51.259       48.741        0.437       99.563   3.2985E-01   1.2193E-01   1.8274E-01
     1823.000       51.361       48.639        0.438       99.562   3.3119E-01   1.2158E-01   1.8241E-01
     1823.000       51.462       48.538        0.439       99.561   3.3254E-01   1.2122E-01   1.8208E-01
     1823.000       51.564       48.436        0.440       99.560   3.3388E-01   1.2087E-01   1.8175E-01
     1823.000       51.665       48.335        0.441       99.559   3.3523E-01   1.2052E-01   1.8142E-01
     1823.000       51.766       48.234        0.442       99.558   3.3657E-01   1.2016E-01   1.8109E-01
     1823.000       51.868       48.132        0.443       99.557   3.3791E-01   1.1982E-01   1.8076E-01
     1823.000       51.969       48.031        0.444       99.556   3.3926E-01   1.1947E-01   1.8042E-01
     1823.000       52.070       47.930        0.445       99.555   3.4060E-01   1.1912E-01   1.8009E-01
     1823.000       52.171       47.829        0.446       99.554   3.4194E-01   1.1878E-01   1.7976E-01
     1823.000       52.272       47.728        0.447       99.553   3.4329E-01   1.1844E-01   1.7942E-01
     1823.000       52.373       47.627        0.448       99.552   3.4463E-01   1.1809E-01   1.7909E-01
     1823.000       52.474       47.526        0.449       99.551   3.4597E-01   1.1775E-01   1.7876E-01
     1823.000       52.574       47.426        0.450       99.550   3.4732E-01   1.1742E-01   1.7842E-01
     1823.000       52.675       47.325        0.451       99.549   3.4866E-01   1.1708E-01   1.7809E-01
     1823.000       52.776       47.224        0.452       99.548   3.5000E-01   1.1675E-01   1.7775E-01
     1823.000       52.876       47.124        0.453       99.547   3.5134E-01   1.1641E-01   1.7741E-01
     1823.000       52.977       47.023        0.454       99.546   3.5269E-01   1.1608E-01   1.7708E-01
     1823.000       53.077       46.923        0.455       99.545   3.5402E-01   1.1575E-01   1.7674E-01
     1823.000       53.178       46.822        0.456       99.544   3.5537E-01   1.1542E-01   1.7640E-01
     1823.000       53.278       46.722        0.457       99.543   3.5671E-01   1.1509E-01   1.7607E-01
     1823.000       53.378       46.622        0.458       99.542   3.5805E-01   1.1477E-01   1.7573E-01
     1823.000       53.479       46.521        0.459       99.541   3.5939E-01   1.1444E-01   1.7539E-01
     1823.000       53.579       46.421        0.460       99.540   3.6073E-01   1.1412E-01   1.7505E-01
     1823.000       53.679       46.321        0.461       99.539   3.6207E-01   1.1380E-01   1.7471E-01
     1823.000       53.779       46.221        0.462       99.538   3.6341E-01   1.1348E-01   1.7437E-01
     1823.000       53.879       46.121        0.463       99.537   3.6475E-01   1.1316E-01   1.7403E-01
     1823.000       53.979       46.021        0.464       99.536   3.6609E-01   1.1284E-01   1.7369E-01
     1823.000       54.079       45.921        0.465       99.535   3.6743E-01   1.1252E-01   1.7335E-01
     1823.000       54.178       45.822        0.466       99.534   3.6877E-01   1.1221E-01   1.7301E-01
     1823.000       54.278       45.722        0.467       99.533   3.7011E-01   1.1189E-01   1.7266E-01
     1823.000       54.378       45.622        0.468       99.532   3.7145E-01   1.1158E-01   1.7232E-01
     1823.000       54.477       45.523        0.469       99.531   3.7279E-01   1.1127E-01   1.7198E-01
     1823.000       54.577       45.423        0.470       99.530   3.7413E-01   1.1096E-01   1.7164E-01
     1823.000       54.676       45.324        0.471       99.529   3.7546E-01   1.1065E-01   1.7129E-01
     1823.000       54.776       45.224        0.472       99.528   3.7680E-01   1.1034E-01   1.7095E-01
     1823.000       54.875       45.125        0.473       99.527   3.7814E-01   1.1004E-01   1.7061E-01
     1823.000       54.975       45.025        0.474       99.526   3.7948E-01   1.0973E-01   1.7026E-01
     1823.000       55.074       44.926        0.475       99.525   3.8081E-01   1.0943E-01   1.6992E-01
     1823.000       55.173       44.827        0.476       99.524   3.8215E-01   1.0913E-01   1.6957E-01
     1823.000       55.272       44.728        0.477       99.523   3.8349E-01   1.0883E-01   1.6923E-01
     1823.000       55.371       44.629        0.478       99.522   3.8482E-01   1.0853E-01   1.6888E-01
     1823.000       55.470       44.530        0.479       99.521   3.8616E-01   1.0823E-01   1.6854E-01
     1823.000       55.569       44.431        0.480       99.520   3.8749E-01   1.0793E-01   1.6819E-01
     1823.000       55.668       44.332        0.481       99.519   3.8883E-01   1.0763E-01   1.6785E-01
     1823.000       55.767       44.233        0.482       99.518   3.9016E-01   1.0734E-01   1.6750E-01
     1823.000       55.866       44.134        0.483       99.517   3.9150E-01   1.0704E-01   1.6715E-01
     1823.000       55.964       44.036        0.484       99.516   3.9283E-01   1.0675E-01   1.6680E-01
     1823.000       56.063       43.937        0.485       99.515   3.9417E-01   1.0646E-01   1.6646E-01
     1823.000       56.162       43.838        0.486       99.514   3.9550E-01   1.0617E-01   1.6611E-01
     1823.000       56.260       43.740        0.487       99.513   3.9683E-01   1.0588E-01   1.6576E-01
     1823.000       56.359       43.641        0.488       99.512   3.9817E-01   1.0559E-01   1.6541E-01
     1823.000       56.457       43.543        0.489       99.511   3.9950E-01   1.0530E-01   1.6507E-01
     1823.000       56.555       43.445        0.490       99.510   4.0083E-01   1.0502E-01   1.6472E-01
     1823.000       56.654       43.346        0.491       99.509   4.0216E-01   1.0473E-01   1.6437E-01
     1823.000       56.752       43.248        0.492       99.508   4.0350E-01   1.0445E-01   1.6402E-01
     1823.000       56.850       43.150        0.493       99.507   4.0482E-01   1.0416E-01   1.6367E-01
     1823.000       56.948       43.052        0.494       99.506   4.0615E-01   1.0388E-01   1.6332E-01
     1823.000       57.046       42.954        0.495       99.505   4.0748E-01   1.0360E-01   1.6297E-01
     1823.000       57.144       42.856        0.496       99.504   4.0881E-01   1.0332E-01   1.6262E-01
     1823.000       57.242       42.758        0.497       99.503   4.1014E-01   1.0304E-01   1.6227E-01
     1823.000       57.340       42.660        0.498       99.502   4.1147E-01   1.0277E-01   1.6192E-01
     1823.000       57.438       42.562        0.499       99.501   4.1280E-01   1.0249E-01   1.6157E-01
     1823.000       57.536       42.464        0.500       99.500   4.1413E-01   1.0221E-01   1.6122E-01
     1823.000       57.633       42.367        0.501       99.499   4.1546E-01   1.0194E-01   1.6087E-01
     1823.000       57.731       42.269        0.502       99.498   4.1679E-01   1.0166E-01   1.6051E-01
     1823.000       57.828       42.172        0.503       99.497   4.1811E-01   1.0139E-01   1.6016E-01
     1823.000       57.926       42.074        0.504       99.496   4.1944E-01   1.0112E-01   1.5981E-01
     1823.000       58.023       41.977        0.505       99.495   4.2077E-01   1.0085E-01   1.5946E-01
     1823.000       58.121       41.879        0.506       99.494   4.2210E-01   1.0058E-01   1.5911E-01
     1823.000       58.218       41.782        0.507       99.493   4.2342E-01   1.0031E-01   1.5876E-01
     1823.000       58.315       41.685        0.508       99.492   4.2475E-01   1.0004E-01   1.5840E-01
     1823.000       58.413       41.587        0.509       99.491   4.2607E-01   9.9776E-02   1.5805E-01
     1823.000       58.510       41.490        0.510       99.490   4.2740E-01   9.9509E-02   1.5770E-01
     1823.000       58.607       41.393        0.511       99.489   4.2872E-01   9.9244E-02   1.5734E-01
     1823.000       58.704       41.296        0.512       99.488   4.3005E-01   9.8980E-02   1.5699E-01
     1823.000       58.801       41.199        0.513       99.487   4.3137E-01   9.8717E-02   1.5664E-01
     1823.000       58.898       41.102        0.514       99.486   4.3269E-01   9.8455E-02   1.5628E-01
     1823.000       58.995       41.005        0.515       99.485   4.3401E-01   9.8194E-02   1.5593E-01
     1823.000       59.092       40.908        0.516       99.484   4.3533E-01   9.7933E-02   1.5558E-01
     1823.000       59.188       40.812        0.517       99.483   4.3665E-01   9.7674E-02   1.5522E-01
     1823.000       59.285       40.715        0.518       99.482   4.3798E-01   9.7415E-02   1.5487E-01
     1823.000       59.382       40.618        0.519       99.481   4.3930E-01   9.7157E-02   1.5451E-01
     1823.000       59.478       40.522        0.520       99.480   4.4062E-01   9.6900E-02   1.5416E-01
     1823.000       59.575       40.425        0.521       99.479   4.4194E-01   9.6644E-02   1.5381E-01
     1823.000       59.671       40.329        0.522       99.478   4.4326E-01   9.6389E-02   1.5345E-01
     1823.000       59.768       40.232        0.523       99.477   4.4458E-01   9.6134E-02   1.5310E-01
     1823.000       59.864       40.136        0.524       99.476   4.4589E-01   9.5881E-02   1.5274E-01
     1823.000       59.960       40.040        0.525       99.475   4.4721E-01   9.5628E-02   1.5239E-01
     1823.000       60.057       39.943        0.526       99.474   4.4853E-01   9.5376E-02   1.5203E-01
     1823.000       60.153       39.847        0.527       99.473   4.4985E-01   9.5125E-02   1.5167E-01
     1823.000       60.249       39.751        0.528       99.472   4.5117E-01   9.4874E-02   1.5132E-01
     1823.000       60.345       39.655        0.529       99.471   4.5248E-01   9.4625E-02   1.5096E-01
     1823.000       60.441       39.559        0.530       99.470   4.5380E-01   9.4376E-02   1.5061E-01
     1823.000       60.537       39.463        0.531       99.469   4.5512E-01   9.4128E-02   1.5025E-01
     1823.000       60.633       39.367        0.532       99.468   4.5643E-01   9.3881E-02   1.4990E-01
     1823.000       60.729       39.271        0.533       99.467   4.5775E-01   9.3634E-02   1.4954E-01
     1823.000       60.825       39.175        0.534       99.466   4.5906E-01   9.3389E-02   1.4918E-01
     1823.000       60.920       39.080        0.535       99.465   4.6037E-01   9.3144E-02   1.4883E-01
     1823.000       61.016       38.984        0.536       99.464   4.6168E-01   9.2901E-02   1.4847E-01
     1823.000       61.112       38.888        0.537       99.463   4.6299E-01   9.2658E-02   1.4811E-01
     1823.000       61.207       38.793        0.538       99.462   4.6431E-01   9.2415E-02   1.4776E-01
     1823.000       61.303       38.697        0.539       99.461   4.6562E-01   9.2173E-02   1.4740E-01
     1823.000       61.398       38.602        0.540       99.460   4.6693E-01   9.1933E-02   1.4704E-01
     1823.000       61.493       38.507        0.541       99.459   4.6824E-01   9.1692E-02   1.4669E-01
     1823.000       61.589       38.411        0.542       99.458   4.6955E-01   9.1453E-02   1.4633E-01
     1823.000       61.684       38.316        0.543       99.457   4.7086E-01   9.1214E-02   1.4597E-01
     1823.000       61.779       38.221        0.544       99.456   4.7217E-01   9.0976E-02   1.4562E-01
     1823.000       61.874       38.126        0.545       99.455   4.7348E-01   9.0739E-02   1.4526E-01
     1823.000       61.970       38.030        0.546       99.454   4.7479E-01   9.0502E-02   1.4490E-01
     1823.000       62.065       37.935        0.547       99.453   4.7609E-01   9.0266E-02   1.4455E-01
     1823.000       62.160       37.840        0.548       99.452   4.7740E-01   9.0031E-02   1.4419E-01
     1823.000       62.255       37.745        0.549       99.451   4.7871E-01   8.9797E-02   1.4383E-01
     1823.000       62.349       37.651        0.550       99.450   4.8002E-01   8.9563E-02   1.4347E-01
     1823.000       62.444       37.556        0.551       99.449   4.8132E-01   8.9330E-02   1.4312E-01
     1823.000       62.539       37.461        0.552       99.448   4.8263E-01   8.9097E-02   1.4276E-01
     1823.000       62.634       37.366        0.553       99.447   4.8393E-01   8.8865E-02   1.4240E-01
     1823.000       62.728       37.272        0.554       99.446   4.8524E-01   8.8634E-02   1.4204E-01
     1823.000       62.823       37.177        0.555       99.445   4.8654E-01   8.8404E-02   1.4168E-01
     1823.000       62.917       37.083        0.556       99.444   4.8785E-01   8.8174E-02   1.4133E-01
     1823.000       63.012       36.988        0.557       99.443   4.8915E-01   8.7945E-02   1.4097E-01
     1823.000       63.106       36.894        0.558       99.442   4.9045E-01   8.7716E-02   1.4061E-01
     1823.000       63.201       36.799        0.559       99.441   4.9175E-01   8.7489E-02   1.4025E-01
     1823.000       63.295       36.705        0.560       99.440   4.9305E-01   8.7262E-02   1.3989E-01
     1823.000       63.389       36.611        0.561       99.439   4.9435E-01   8.7036E-02   1.3954E-01
     1823.000       63.484       36.516        0.562       99.438   4.9565E-01   8.6810E-02   1.3918E-01
     1823.000       63.578       36.422        0.563       99.437   4.9695E-01   8.6585E-02   1.3882E-01
     1823.000       63.672       36.328        0.564       99.436   4.9825E-01   8.6360E-02   1.3846E-01
     1823.000       63.766       36.234        0.565       99.435   4.9955E-01   8.6136E-02   1.3810E-01
     1823.000       63.860       36.140        0.566       99.434   5.0084E-01   8.5913E-02   1.3775E-01
     1823.000       63.954       36.046        0.567       99.433   5.0214E-01   8.5690E-02   1.3739E-01
     1823.000       64.048       35.952        0.568       99.432   5.0344E-01   8.5468E-02   1.3703E-01
     1823.000       64.141       35.859        0.569       99.431   5.0474E-01   8.5246E-02   1.3667E-01
     1823.000       64.235       35.765        0.570       99.430   5.0603E-01   8.5025E-02   1.3631E-01
     1823.000       64.329       35.671        0.571       99.429   5.0733E-01   8.4805E-02   1.3595E-01
     1823.000       64.423       35.577        0.572       99.428   5.0862E-01   8.4585E-02   1.3560E-01
     1823.000       64.516       35.484        0.573       99.427   5.0992E-01   8.4366E-02   1.3524E-01
     1823.000       64.610       35.390        0.574       99.426   5.1121E-01   8.4148E-02   1.3488E-01
     1823.000       64.703       35.297        0.575       99.425   5.1250E-01   8.3930E-02   1.3452E-01
     1823.000       64.797       35.203        0.576       99.424   5.1380E-01   8.3712E-02   1.3416E-01
     1823.000       64.890       35.110        0.577       99.423   5.1509E-01   8.3495E-02   1.3380E-01
     1823.000       64.983       35.017        0.578       99.422   5.1638E-01   8.3279E-02   1.3344E-01
     1823.000       65.077       34.923        0.579       99.421   5.1768E-01   8.3063E-02   1.3309E-01
     1823.000       65.170       34.830        0.580       99.420   5.1897E-01   8.2848E-02   1.3273E-01
     1823.000       65.263       34.737        0.581       99.419   5.2026E-01   8.2633E-02   1.3237E-01
     1823.000       65.356       34.644        0.582       99.418   5.2155E-01   8.2419E-02   1.3201E-01
     1823.000       65.449       34.551        0.583       99.417   5.2283E-01   8.2206E-02   1.3165E-01
     1823.000       65.542       34.458        0.584       99.416   5.2412E-01   8.1993E-02   1.3129E-01
     1823.000       65.635       34.365        0.585       99.415   5.2541E-01   8.1780E-02   1.3094E-01
     1823.000       65.728       34.272        0.586       99.414   5.2670E-01   8.1568E-02   1.3058E-01
     1823.000       65.821       34.179        0.587       99.413   5.2798E-01   8.1358E-02   1.3022E-01
     1823.000       65.913       34.087        0.588       99.412   5.2927E-01   8.1147E-02   1.2986E-01
     1823.000       66.006       33.994        0.589       99.411   5.3055E-01   8.0937E-02   1.2950E-01
     1823.000       66.099       33.901        0.590       99.410   5.3184E-01   8.0727E-02   1.2914E-01
     1823.000       66.191       33.809        0.591       99.409   5.3312E-01   8.0518E-02   1.2879E-01
     1823.000       66.284       33.716        0.592       99.408   5.3440E-01   8.0309E-02   1.2843E-01
     1823.000       66.376       33.624        0.593       99.407   5.3569E-01   8.0101E-02   1.2807E-01
     1823.000       66.469       33.531        0.594       99.406   5.3697E-01   7.9893E-02   1.2771E-01
     1823.000       66.561       33.439        0.595       99.405   5.3825E-01   7.9685E-02   1.2735E-01
     1823.000       66.654       33.346        0.596       99.404   5.3954E-01   7.9479E-02   1.2699E-01
     1823.000       66.746       33.254        0.597       99.403   5.4082E-01   7.9272E-02   1.2664E-01
     1823.000       66.838       33.162        0.598       99.402   5.4210E-01   7.9067E-02   1.2628E-01
     1823.000       66.930       33.070        0.599       99.401   5.4338E-01   7.8861E-02   1.2592E-01
     1823.000       67.022       32.978        0.600       99.400   5.4466E-01   7.8657E-02   1.2556E-01
     1823.000       67.115       32.885        0.601       99.399   5.4594E-01   7.8452E-02   1.2520E-01
     1823.000       67.207       32.793        0.602       99.398   5.4722E-01   7.8248E-02   1.2484E-01
     1823.000       67.298       32.702        0.603       99.397   5.4850E-01   7.8045E-02   1.2449E-01
     1823.000       67.390       32.610        0.604       99.396   5.4977E-01   7.7842E-02   1.2413E-01
     1823.000       67.482       32.518        0.605       99.395   5.5105E-01   7.7639E-02   1.2377E-01
     1823.000       67.574       32.426        0.606       99.394   5.5233E-01   7.7437E-02   1.2341E-01
     1823.000       67.666       32.334        0.607       99.393   5.5360E-01   7.7236E-02   1.2305E-01
     1823.000       67.757       32.243        0.608       99.392   5.5488E-01   7.7035E-02   1.2270E-01
     1823.000       67.849       32.151        0.609       99.391   5.5615E-01   7.6834E-02   1.2234E-01
     1823.000       67.941       32.059        0.610       99.390   5.5742E-01   7.6634E-02   1.2198E-01
     1823.000       68.032       31.968        0.611       99.389   5.5870E-01   7.6434E-02   1.2162E-01
     1823.000       68.124       31.876        0.612       99.388   5.5997E-01   7.6235E-02   1.2126E-01
     1823.000       68.215       31.785        0.613       99.387   5.6124E-01   7.6036E-02   1.2091E-01
     1823.000       68.306       31.694        0.614       99.386   5.6251E-01   7.5838E-02   1.2055E-01
     1823.000       68.398       31.602        0.615       99.385   5.6378E-01   7.5640E-02   1.2019E-01
     1823.000       68.489       31.511        0.616       99.384   5.6505E-01   7.5443E-02   1.1983E-01
     1823.000       68.580       31.420        0.617       99.383   5.6632E-01   7.5246E-02   1.1948E-01
     1823.000       68.671       31.329        0.618       99.382   5.6759E-01   7.5049E-02   1.1912E-01
     1823.000       68.763       31.237        0.619       99.381   5.6886E-01   7.4853E-02   1.1876E-01
     1823.000       68.854       31.146        0.620       99.380   5.7012E-01   7.4657E-02   1.1840E-01
     1823.000       68.945       31.055        0.621       99.379   5.7139E-01   7.4462E-02   1.1805E-01
     1823.000       69.036       30.964        0.622       99.378   5.7266E-01   7.4266E-02   1.1769E-01
     1823.000       69.126       30.874        0.623       99.377   5.7392E-01   7.4072E-02   1.1733E-01
     1823.000       69.217       30.783        0.624       99.376   5.7519E-01   7.3878E-02   1.1698E-01
     1823.000       69.308       30.692        0.625       99.375   5.7645E-01   7.3684E-02   1.1662E-01
     1823.000       69.399       30.601        0.626       99.374   5.7772E-01   7.3490E-02   1.1626E-01
     1823.000       69.489       30.511        0.627       99.373   5.7898E-01   7.3297E-02   1.1591E-01
     1823.000       69.580       30.420        0.628       99.372   5.8025E-01   7.3105E-02   1.1555E-01
     1823.000       69.671       30.329        0.629       99.371   5.8151E-01   7.2912E-02   1.1519E-01
     1823.000       69.761       30.239        0.630       99.370   5.8277E-01   7.2720E-02   1.1483E-01
     1823.000       69.852       30.148        0.631       99.369   5.8404E-01   7.2529E-02   1.1448E-01
     1823.000       69.942       30.058        0.632       99.368   5.8530E-01   7.2338E-02   1.1412E-01
     1823.000       70.032       29.968        0.633       99.367   5.8656E-01   7.2147E-02   1.1376E-01
     1823.000       70.123       29.877        0.634       99.366   5.8782E-01   7.1957E-02   1.1341E-01
     1823.000       70.213       29.787        0.635       99.365   5.8908E-01   7.1767E-02   1.1305E-01
     1823.000       70.303       29.697        0.636       99.364   5.9033E-01   7.1577E-02   1.1270E-01
     1823.000       70.393       29.607        0.637       99.363   5.9159E-01   7.1388E-02   1.1234E-01
     1823.000       70.483       29.517        0.638       99.362   5.9285E-01   7.1199E-02   1.1198E-01
     1823.000       70.574       29.426        0.639       99.361   5.9411E-01   7.1011E-02   1.1163E-01
     1823.000       70.664       29.336        0.640       99.360   5.9536E-01   7.0822E-02   1.1127E-01
     1823.000       70.753       29.247        0.641       99.359   5.9662E-01   7.0635E-02   1.1092E-01
     1823.000       70.843       29.157        0.642       99.358   5.9787E-01   7.0447E-02   1.1056E-01
     1823.000       70.933       29.067        0.643       99.357   5.9913E-01   7.0260E-02   1.1020E-01
     1823.000       71.023       28.977        0.644       99.356   6.0038E-01   7.0074E-02   1.0985E-01
     1823.000       71.113       28.887        0.645       99.355   6.0163E-01   6.9887E-02   1.0949E-01
     1823.000       71.202       28.798        0.646       99.354   6.0288E-01   6.9702E-02   1.0914E-01
     1823.000       71.292       28.708        0.647       99.353   6.0413E-01   6.9516E-02   1.0878E-01
     1823.000       71.382       28.618        0.648       99.352   6.0538E-01   6.9331E-02   1.0843E-01
     1823.000       71.471       28.529        0.649       99.351   6.0663E-01   6.9146E-02   1.0807E-01
     1823.000       71.561       28.439        0.650       99.350   6.0788E-01   6.8961E-02   1.0772E-01
     1823.000       71.650       28.350        0.651       99.349   6.0913E-01   6.8777E-02   1.0736E-01
     1823.000       71.740       28.260        0.652       99.348   6.1038E-01   6.8592E-02   1.0701E-01
     1823.000       71.829       28.171        0.653       99.347   6.1163E-01   6.8409E-02   1.0665E-01
     1823.000       71.918       28.082        0.654       99.346   6.1288E-01   6.8225E-02   1.0630E-01
     1823.000       72.007       27.993        0.655       99.345   6.1412E-01   6.8042E-02   1.0594E-01
     1823.000       72.097       27.903        0.656       99.344   6.1537E-01   6.7860E-02   1.0559E-01
     1823.000       72.186       27.814        0.657       99.343   6.1661E-01   6.7677E-02   1.0523E-01
     1823.000       72.275       27.725        0.658       99.342   6.1786E-01   6.7495E-02   1.0488E-01
     1823.000       72.364       27.636        0.659       99.341   6.1911E-01   6.7313E-02   1.0453E-01
     1823.000       72.453       27.547        0.660       99.340   6.2035E-01   6.7131E-02   1.0417E-01
     1823.000       72.542       27.458        0.661       99.339   6.2160E-01   6.6950E-02   1.0382E-01
     1823.000       72.630       27.370        0.662       99.338   6.2284E-01   6.6769E-02   1.0346E-01
     1823.000       72.719       27.281        0.663       99.337   6.2408E-01   6.6588E-02   1.0311E-01
     1823.000       72.808       27.192        0.664       99.336   6.2532E-01   6.6408E-02   1.0276E-01
     1823.000       72.897       27.103        0.665       99.335   6.2656E-01   6.6228E-02   1.0240E-01
     1823.000       72.985       27.015        0.666       99.334   6.2780E-01   6.6048E-02   1.0205E-01
     1823.000       73.074       26.926        0.667       99.333   6.2904E-01   6.5869E-02   1.0170E-01
     1823.000       73.163       26.837        0.668       99.332   6.3028E-01   6.5690E-02   1.0134E-01
     1823.000       73.251       26.749        0.669       99.331   6.3152E-01   6.5511E-02   1.0099E-01
     1823.000       73.340       26.660        0.670       99.330   6.3276E-01   6.5332E-02   1.0064E-01
     1823.000       73.428       26.572        0.671       99.329   6.3399E-01   6.5154E-02   1.0028E-01
     1823.000       73.516       26.484        0.672       99.328   6.3523E-01   6.4976E-02   9.9931E-02
     1823.000       73.605       26.395        0.673       99.327   6.3647E-01   6.4798E-02   9.9578E-02
     1823.000       73.693       26.307        0.674       99.326   6.3770E-01   6.4621E-02   9.9225E-02
     1823.000       73.781       26.219        0.675       99.325   6.3894E-01   6.4444E-02   9.8873E-02
     1823.000       73.869       26.131        0.676       99.324   6.4017E-01   6.4267E-02   9.8521E-02
     1823.000       73.957       26.043        0.677       99.323   6.4140E-01   6.4090E-02   9.8168E-02
     1823.000       74.045       25.955        0.678       99.322   6.4264E-01   6.3914E-02   9.7816E-02
     1823.000       74.133       25.867        0.679       99.321   6.4386E-01   6.3738E-02   9.7465E-02
     1823.000       74.221       25.779        0.680       99.320   6.4509E-01   6.3562E-02   9.7113E-02
     1823.000       74.309       25.691        0.681       99.319   6.4632E-01   6.3386E-02   9.6762E-02
     1823.000       74.397       25.603        0.682       99.318   6.4755E-01   6.3211E-02   9.6410E-02
     1823.000       74.485       25.515        0.683       99.317   6.4878E-01   6.3036E-02   9.6058E-02
     1823.000       74.573       25.427        0.684       99.316   6.5001E-01   6.2861E-02   9.5707E-02
     1823.000       74.660       25.340        0.685       99.315   6.5124E-01   6.2686E-02   9.5356E-02
     1823.000       74.748       25.252        0.686       99.314   6.5247E-01   6.2512E-02   9.5005E-02
     1823.000       74.836       25.164        0.687       99.313   6.5369E-01   6.2338E-02   9.4654E-02
     1823.000       74.923       25.077        0.688       99.312   6.5492E-01   6.2164E-02   9.4303E-02
     1823.000       75.011       24.989        0.689       99.311   6.5615E-01   6.1990E-02   9.3952E-02
     1823.000       75.098       24.902        0.690       99.310   6.5737E-01   6.1817E-02   9.3602E-02
     1823.000       75.186       24.814        0.691       99.309   6.5860E-01   6.1643E-02   9.3251E-02
     1823.000       75.273       24.727        0.692       99.308   6.5983E-01   6.1470E-02   9.2901E-02
     1823.000       75.360       24.640        0.693       99.307   6.6105E-01   6.1297E-02   9.2551E-02
     1823.000       75.447       24.553        0.694       99.306   6.6227E-01   6.1125E-02   9.2201E-02
     1823.000       75.535       24.465        0.695       99.305   6.6349E-01   6.0953E-02   9.1851E-02
     1823.000       75.622       24.378        0.696       99.304   6.6471E-01   6.0781E-02   9.1501E-02
     1823.000       75.709       24.291        0.697       99.303   6.6594E-01   6.0609E-02   9.1151E-02
     1823.000       75.796       24.204        0.698       99.302   6.6716E-01   6.0437E-02   9.0802E-02
     1823.000       75.883       24.117        0.699       99.301   6.6838E-01   6.0266E-02   9.0452E-02
     1823.000       75.970       24.030        0.700       99.300   6.6959E-01   6.0094E-02   9.0103E-02
     1823.000       76.057       23.943        0.701       99.299   6.7081E-01   5.9923E-02   8.9754E-02
     1823.000       76.144       23.856        0.702       99.298   6.7203E-01   5.9753E-02   8.9405E-02
     1823.000       76.231       23.769        0.703       99.297   6.7325E-01   5.9582E-02   8.9057E-02
     1823.000       76.317       23.683        0.704       99.296   6.7446E-01   5.9412E-02   8.8708E-02
     1823.000       76.404       23.596        0.705       99.295   6.7568E-01   5.9242E-02   8.8360E-02
     1823.000       76.491       23.509        0.706       99.294   6.7689E-01   5.9072E-02   8.8011E-02
     1823.000       76.577       23.423        0.707       99.293   6.7811E-01   5.8902E-02   8.7663E-02
     1823.000       76.664       23.336        0.708       99.292   6.7932E-01   5.8732E-02   8.7315E-02
     1823.000       76.750       23.250        0.709       99.291   6.8053E-01   5.8563E-02   8.6967E-02
     1823.000       76.837       23.163        0.710       99.290   6.8175E-01   5.8394E-02   8.6619E-02
     1823.000       76.923       23.077        0.711       99.289   6.8296E-01   5.8225E-02   8.6272E-02
     1823.000       77.010       22.990        0.712       99.288   6.8417E-01   5.8056E-02   8.5924E-02
     1823.000       77.096       22.904        0.713       99.287   6.8538E-01   5.7887E-02   8.5577E-02
     1823.000       77.182       22.818        0.714       99.286   6.8658E-01   5.7719E-02   8.5231E-02
     1823.000       77.268       22.732        0.715       99.285   6.8779E-01   5.7551E-02   8.4884E-02
     1823.000       77.355       22.645        0.716       99.284   6.8900E-01   5.7383E-02   8.4537E-02
     1823.000       77.441       22.559        0.717       99.283   6.9021E-01   5.7215E-02   8.4190E-02
     1823.000       77.527       22.473        0.718       99.282   6.9142E-01   5.7047E-02   8.3844E-02
     1823.000       77.613       22.387        0.719       99.281   6.9262E-01   5.6880E-02   8.3497E-02
     1823.000       77.699       22.301        0.720       99.280   6.9383E-01   5.6712E-02   8.3151E-02
     1823.000       77.785       22.215        0.721       99.279   6.9503E-01   5.6545E-02   8.2805E-02
     1823.000       77.871       22.129        0.722       99.278   6.9624E-01   5.6378E-02   8.2459E-02
     1823.000       77.956       22.044        0.723       99.277   6.9744E-01   5.6211E-02   8.2113E-02
     1823.000       78.042       21.958        0.724       99.276   6.9865E-01   5.6044E-02   8.1767E-02
     1823.000       78.128       21.872        0.725       99.275   6.9985E-01   5.5877E-02   8.1422E-02
     1823.000       78.214       21.786        0.726       99.274   7.0106E-01   5.5711E-02   8.1077E-02
     1823.000       78.299       21.701        0.727       99.273   7.0226E-01   5.5545E-02   8.0732E-02
     1823.000       78.385       21.615        0.728       99.272   7.0346E-01   5.5379E-02   8.0387E-02
     1823.000       78.470       21.530        0.729       99.271   7.0466E-01   5.5213E-02   8.0042E-02
     1823.000       78.556       21.444        0.730       99.270   7.0586E-01   5.5047E-02   7.9698E-02
     1823.000       78.641       21.359        0.731       99.269   7.0706E-01   5.4881E-02   7.9353E-02
     1823.000       78.727       21.273        0.732       99.268   7.0826E-01   5.4716E-02   7.9009E-02
     1823.000       78.812       21.188        0.733       99.267   7.0945E-01   5.4550E-02   7.8665E-02
     1823.000       78.897       21.103        0.734       99.266   7.1065E-01   5.4385E-02   7.8321E-02
     1823.000       78.983       21.017        0.735       99.265   7.1185E-01   5.4220E-02   7.7977E-02
     1823.000       79.068       20.932        0.736       99.264   7.1304E-01   5.4055E-02   7.7634E-02
     1823.000       79.153       20.847        0.737       99.263   7.1424E-01   5.3890E-02   7.7290E-02
     1823.000       79.238       20.762        0.738       99.262   7.1543E-01   5.3726E-02   7.6947E-02
     1823.000       79.323       20.677        0.739       99.261   7.1662E-01   5.3561E-02   7.6604E-02
     1823.000       79.408       20.592        0.740       99.260   7.1782E-01   5.3397E-02   7.6261E-02
     1823.000       79.493       20.507        0.741       99.259   7.1901E-01   5.3232E-02   7.5919E-02
     1823.000       79.578       20.422        0.742       99.258   7.2020E-01   5.3068E-02   7.5576E-02
     1823.000       79.663       20.337        0.743       99.257   7.2139E-01   5.2904E-02   7.5234E-02
     1823.000       79.748       20.252        0.744       99.256   7.2258E-01   5.2740E-02   7.4892E-02
     1823.000       79.832       20.168        0.745       99.255   7.2377E-01   5.2576E-02   7.4550E-02
     1823.000       79.917       20.083        0.746       99.254   7.2496E-01   5.2413E-02   7.4208E-02
     1823.000       80.002       19.998        0.747       99.253   7.2615E-01   5.2249E-02   7.3866E-02
     1823.000       80.086       19.914        0.748       99.252   7.2734E-01   5.2086E-02   7.3525E-02
     1823.000       80.171       19.829        0.749       99.251   7.2853E-01   5.1922E-02   7.3184E-02
     1823.000       80.256       19.744        0.750       99.250   7.2970E-01   5.1760E-02   7.2843E-02
     1823.000       80.340       19.660        0.751       99.249   7.3089E-01   5.1596E-02   7.2502E-02
     1823.000       80.425       19.575        0.752       99.248   7.3207E-01   5.1433E-02   7.2162E-02
     1823.000       80.509       19.491        0.753       99.247   7.3326E-01   5.1270E-02   7.1821E-02
     1823.000       80.593       19.407        0.754       99.246   7.3444E-01   5.1108E-02   7.1481E-02
     1823.000       80.678       19.322        0.755       99.245   7.3563E-01   5.0945E-02   7.1141E-02
     1823.000       80.762       19.238        0.756       99.244   7.3681E-01   5.0782E-02   7.0801E-02
     1823.000       80.846       19.154        0.757       99.243   7.3799E-01   5.0620E-02   7.0461E-02
     1823.000       80.930       19.070        0.758       99.242   7.3917E-01   5.0457E-02   7.0121E-02
     1823.000       81.014       18.986        0.759       99.241   7.4036E-01   5.0294E-02   6.9782E-02
     1823.000       81.098       18.902        0.760       99.240   7.4154E-01   5.0132E-02   6.9442E-02
     1823.000       81.182       18.818        0.761       99.239   7.4272E-01   4.9970E-02   6.9103E-02
     1823.000       81.266       18.734        0.762       99.238   7.4390E-01   4.9808E-02   6.8765E-02
     1823.000       81.350       18.650        0.763       99.237   7.4507E-01   4.9646E-02   6.8426E-02
     1823.000       81.434       18.566        0.764       99.236   7.4625E-01   4.9484E-02   6.8088E-02
     1823.000       81.518       18.482        0.765       99.235   7.4743E-01   4.9322E-02   6.7749E-02
     1823.000       81.602       18.398        0.766       99.234   7.4860E-01   4.9160E-02   6.7411E-02
     1823.000       81.685       18.315        0.767       99.233   7.4978E-01   4.8998E-02   6.7074E-02
     1823.000       81.769       18.231        0.768       99.232   7.5095E-01   4.8836E-02   6.6736E-02
     1823.000       81.853       18.147        0.769       99.231   7.5213E-01   4.8675E-02   6.6399E-02
     1823.000       81.936       18.064        0.770       99.230   7.5330E-01   4.8513E-02   6.6061E-02
     1823.000       82.020       17.980        0.771       99.229   7.5447E-01   4.8352E-02   6.5724E-02
     1823.000       82.103       17.897        0.772       99.228   7.5565E-01   4.8190E-02   6.5388E-02
     1823.000       82.187       17.813        0.773       99.227   7.5682E-01   4.8029E-02   6.5051E-02
     1823.000       82.270       17.730        0.774       99.226   7.5799E-01   4.7867E-02   6.4715E-02
     1823.000       82.354       17.646        0.775       99.225   7.5916E-01   4.7706E-02   6.4379E-02
     1823.000       82.437       17.563        0.776       99.224   7.6033E-01   4.7545E-02   6.4043E-02
     1823.000       82.520       17.480        0.777       99.223   7.6149E-01   4.7384E-02   6.3707E-02
     1823.000       82.604       17.396        0.778       99.222   7.6266E-01   4.7223E-02   6.3371E-02
     1823.000       82.687       17.313        0.779       99.221   7.6383E-01   4.7061E-02   6.3036E-02
     1823.000       82.770       17.230        0.780       99.220   7.6500E-01   4.6900E-02   6.2701E-02
     1823.000       82.853       17.147        0.781       99.219   7.6616E-01   4.6739E-02   6.2366E-02
     1823.000       82.936       17.064        0.782       99.218   7.6733E-01   4.6578E-02   6.2031E-02
     1823.000       83.019       16.981        0.783       99.217   7.6849E-01   4.6417E-02   6.1697E-02
     1823.000       83.102       16.898        0.784       99.216   7.6966E-01   4.6257E-02   6.1362E-02
     1823.000       83.185       16.815        0.785       99.215   7.7082E-01   4.6096E-02   6.1028E-02
     1823.000       83.268       16.732        0.786       99.214   7.7197E-01   4.5935E-02   6.0695E-02
     1823.000       83.350       16.650        0.787       99.213   7.7313E-01   4.5774E-02   6.0361E-02
     1823.000       83.433       16.567        0.788       99.212   7.7429E-01   4.5613E-02   6.0028E-02
     1823.000       83.516       16.484        0.789       99.211   7.7546E-01   4.5453E-02   5.9695E-02
     1823.000       83.599       16.401        0.790       99.210   7.7662E-01   4.5292E-02   5.9362E-02
     1823.000       83.681       16.319        0.791       99.209   7.7777E-01   4.5131E-02   5.9029E-02
     1823.000       83.764       16.236        0.792       99.208   7.7893E-01   4.4970E-02   5.8697E-02
     1823.000       83.846       16.154        0.793       99.207   7.8010E-01   4.4809E-02   5.8364E-02
     1823.000       83.929       16.071        0.794       99.206   7.8125E-01   4.4648E-02   5.8032E-02
     1823.000       84.011       15.989        0.795       99.205   7.8241E-01   4.4488E-02   5.7700E-02
     1823.000       84.094       15.906        0.796       99.204   7.8357E-01   4.4327E-02   5.7368E-02
     1823.000       84.176       15.824        0.797       99.203   7.8472E-01   4.4166E-02   5.7037E-02
     1823.000       84.258       15.742        0.798       99.202   7.8588E-01   4.4005E-02   5.6706E-02
     1823.000       84.341       15.659        0.799       99.201   7.8703E-01   4.3845E-02   5.6375E-02
     1823.000       84.423       15.577        0.800       99.200   7.8818E-01   4.3684E-02   5.6044E-02
     1823.000       84.505       15.495        0.801       99.199   7.8933E-01   4.3523E-02   5.5714E-02
     1823.000       84.587       15.413        0.802       99.198   7.9049E-01   4.3362E-02   5.5383E-02
     1823.000       84.669       15.331        0.803       99.197   7.9164E-01   4.3202E-02   5.5053E-02
     1823.000       84.751       15.249        0.804       99.196   7.9279E-01   4.3041E-02   5.4724E-02
     1823.000       84.833       15.167        0.805       99.195   7.9394E-01   4.2880E-02   5.4394E-02
     1823.000       84.915       15.085        0.806       99.194   7.9508E-01   4.2719E-02   5.4065E-02
     1823.000       84.997       15.003        0.807       99.193   7.9623E-01   4.2558E-02   5.3736E-02
     1823.000       85.079       14.921        0.808       99.192   7.9738E-01   4.2397E-02   5.3407E-02
     1823.000       85.161       14.839        0.809       99.191   7.9853E-01   4.2236E-02   5.3079E-02
     1823.000       85.242       14.758        0.810       99.190   7.9967E-01   4.2075E-02   5.2750E-02
     1823.000       85.324       14.676        0.811       99.189   8.0082E-01   4.1914E-02   5.2422E-02
     1823.000       85.406       14.594        0.812       99.188   8.0196E-01   4.1753E-02   5.2094E-02
     1823.000       85.487       14.513        0.813       99.187   8.0311E-01   4.1592E-02   5.1767E-02
     1823.000       85.569       14.431        0.814       99.186   8.0425E-01   4.1431E-02   5.1439E-02
     1823.000       85.651       14.349        0.815       99.185   8.0539E-01   4.1269E-02   5.1112E-02
     1823.000       85.732       14.268        0.816       99.184   8.0653E-01   4.1108E-02   5.0786E-02
     1823.000       85.814       14.186        0.817       99.183   8.0768E-01   4.0947E-02   5.0459E-02
     1823.000       85.895       14.105        0.818       99.182   8.0882E-01   4.0785E-02   5.0133E-02
     1823.000       85.976       14.024        0.819       99.181   8.0996E-01   4.0624E-02   4.9807E-02
     1823.000       86.058       13.942        0.820       99.180   8.1109E-01   4.0462E-02   4.9481E-02
     1823.000       86.139       13.861        0.821       99.179   8.1223E-01   4.0301E-02   4.9155E-02
     1823.000       86.220       13.780        0.822       99.178   8.1336E-01   4.0140E-02   4.8830E-02
     1823.000       86.301       13.699        0.823       99.177   8.1450E-01   3.9978E-02   4.8505E-02
     1823.000       86.382       13.618        0.824       99.176   8.1563E-01   3.9816E-02   4.8181E-02
     1823.000       86.464       13.536        0.825       99.175   8.1677E-01   3.9654E-02   4.7856E-02
     1823.000       86.545       13.455        0.826       99.174   8.1790E-01   3.9492E-02   4.7532E-02
     1823.000       86.626       13.374        0.827       99.173   8.1905E-01   3.9330E-02   4.7208E-02
     1823.000       86.707       13.293        0.828       99.172   8.2018E-01   3.9168E-02   4.6884E-02
     1823.000       86.787       13.213        0.829       99.171   8.2131E-01   3.9005E-02   4.6560E-02
     1823.000       86.868       13.132        0.830       99.170   8.2244E-01   3.8843E-02   4.6237E-02
     1823.000       86.949       13.051        0.831       99.169   8.2358E-01   3.8681E-02   4.5914E-02
     1823.000       87.030       12.970        0.832       99.168   8.2471E-01   3.8518E-02   4.5592E-02
     1823.000       87.111       12.889        0.833       99.167   8.2584E-01   3.8355E-02   4.5269E-02
     1823.000       87.191       12.809        0.834       99.166   8.2696E-01   3.8193E-02   4.4947E-02
     1823.000       87.272       12.728        0.835       99.165   8.2809E-01   3.8030E-02   4.4626E-02
     1823.000       87.353       12.647        0.836       99.164   8.2922E-01   3.7867E-02   4.4304E-02
     1823.000       87.433       12.567        0.837       99.163   8.3035E-01   3.7703E-02   4.3983E-02
     1823.000       87.514       12.486        0.838       99.162   8.3147E-01   3.7540E-02   4.3662E-02
     1823.000       87.594       12.406        0.839       99.161   8.3260E-01   3.7377E-02   4.3341E-02
     1823.000       87.675       12.325        0.840       99.160   8.3372E-01   3.7213E-02   4.3021E-02
     1823.000       87.755       12.245        0.841       99.159   8.3485E-01   3.7050E-02   4.2701E-02
     1823.000       87.835       12.165        0.842       99.158   8.3597E-01   3.6886E-02   4.2381E-02
     1823.000       87.916       12.084        0.843       99.157   8.3709E-01   3.6722E-02   4.2061E-02
     1823.000       87.996       12.004        0.844       99.156   8.3821E-01   3.6558E-02   4.1742E-02
     1823.000       88.076       11.924        0.845       99.155   8.3934E-01   3.6394E-02   4.1423E-02
     1823.000       88.156       11.844        0.846       99.154   8.4046E-01   3.6229E-02   4.1105E-02
     1823.000       88.236       11.764        0.847       99.153   8.4158E-01   3.6065E-02   4.0786E-02
     1823.000       88.316       11.684        0.848       99.152   8.4269E-01   3.5900E-02   4.0468E-02
     1823.000       88.396       11.604        0.849       99.151   8.4381E-01   3.5735E-02   4.0151E-02
     1823.000       88.476       11.524        0.850       99.150   8.4493E-01   3.5570E-02   3.9833E-02
     1823.000       88.556       11.444        0.851       99.149   8.4605E-01   3.5405E-02   3.9516E-02
     1823.000       88.636       11.364        0.852       99.148   8.4716E-01   3.5239E-02   3.9199E-02
     1823.000       88.716       11.284        0.853       99.147   8.4828E-01   3.5074E-02   3.8883E-02
     1823.000       88.796       11.204        0.854       99.146   8.4939E-01   3.4908E-02   3.8567E-02
     1823.000       88.876       11.124        0.855       99.145   8.5050E-01   3.4742E-02   3.8251E-02
     1823.000       88.955       11.045        0.856       99.144   8.5161E-01   3.4576E-02   3.7936E-02
     1823.000       89.035       10.965        0.857       99.143   8.5272E-01   3.4410E-02   3.7620E-02
     1823.000       89.115       10.885        0.858       99.142   8.5383E-01   3.4243E-02   3.7306E-02
     1823.000       89.194       10.806        0.859       99.141   8.5495E-01   3.4076E-02   3.6991E-02
     1823.000       89.274       10.726        0.860       99.140   8.5606E-01   3.3909E-02   3.6676E-02
     1823.000       89.353       10.647        0.861       99.139   8.5717E-01   3.3741E-02   3.6363E-02
     1823.000       89.433       10.567        0.862       99.138   8.5828E-01   3.3574E-02   3.6049E-02
     1823.000       89.512       10.488        0.863       99.137   8.5939E-01   3.3406E-02   3.5736E-02
     1823.000       89.592       10.408        0.864       99.136   8.6049E-01   3.3238E-02   3.5423E-02
     1823.000       89.671       10.329        0.865       99.135   8.6160E-01   3.3070E-02   3.5110E-02
     1823.000       89.750       10.250        0.866       99.134   8.6270E-01   3.2901E-02   3.4798E-02
     1823.000       89.830       10.170        0.867       99.133   8.6381E-01   3.2733E-02   3.4486E-02
     1823.000       89.909       10.091        0.868       99.132   8.6491E-01   3.2564E-02   3.4174E-02
     1823.000       89.988       10.012        0.869       99.131   8.6601E-01   3.2395E-02   3.3863E-02
     1823.000       90.067        9.933        0.870       99.130   8.6712E-01   3.2225E-02   3.3552E-02
     1823.000       90.146        9.854        0.871       99.129   8.6822E-01   3.2055E-02   3.3242E-02
     1823.000       90.225        9.775        0.872       99.128   8.6932E-01   3.1885E-02   3.2932E-02
     1823.000       90.304        9.696        0.873       99.127   8.7042E-01   3.1715E-02   3.2622E-02
     1823.000       90.383        9.617        0.874       99.126   8.7152E-01   3.1544E-02   3.2313E-02
     1823.000       90.462        9.538        0.875       99.125   8.7262E-01   3.1373E-02   3.2004E-02
     1823.000       90.541        9.459        0.876       99.124   8.7371E-01   3.1202E-02   3.1695E-02
     1823.000       90.620        9.380        0.877       99.123   8.7481E-01   3.1030E-02   3.1387E-02
     1823.000       90.698        9.302        0.878       99.122   8.7591E-01   3.0858E-02   3.1079E-02
     1823.000       90.777        9.223        0.879       99.121   8.7700E-01   3.0686E-02   3.0771E-02
     1823.000       90.856        9.144        0.880       99.120   8.7809E-01   3.0513E-02   3.0464E-02
     1823.000       90.935        9.065        0.881       99.119   8.7919E-01   3.0341E-02   3.0157E-02
     1823.000       91.013        8.987        0.882       99.118   8.8028E-01   3.0167E-02   2.9851E-02
     1823.000       91.092        8.908        0.883       99.117   8.8137E-01   2.9994E-02   2.9545E-02
     1823.000       91.170        8.830        0.884       99.116   8.8246E-01   2.9820E-02   2.9239E-02
     1823.000       91.249        8.751        0.885       99.115   8.8355E-01   2.9645E-02   2.8934E-02
     1823.000       91.327        8.673        0.886       99.114   8.8463E-01   2.9471E-02   2.8629E-02
     1823.000       91.406        8.594        0.887       99.113   8.8572E-01   2.9296E-02   2.8325E-02
     1823.000       91.484        8.516        0.888       99.112   8.8682E-01   2.9120E-02   2.8020E-02
     1823.000       91.562        8.438        0.889       99.111   8.8790E-01   2.8944E-02   2.7717E-02
     1823.000       91.641        8.359        0.890       99.110   8.8899E-01   2.8768E-02   2.7414E-02
     1823.000       91.719        8.281        0.891       99.109   8.9008E-01   2.8591E-02   2.7111E-02
     1823.000       91.797        8.203        0.892       99.108   8.9116E-01   2.8414E-02   2.6809E-02
     1823.000       91.875        8.125        0.893       99.107   8.9224E-01   2.8236E-02   2.6507E-02
     1823.000       91.953        8.047        0.894       99.106   8.9333E-01   2.8058E-02   2.6205E-02
     1823.000       92.031        7.969        0.895       99.105   8.9441E-01   2.7880E-02   2.5904E-02
     1823.000       92.109        7.891        0.896       99.104   8.9549E-01   2.7701E-02   2.5603E-02
     1823.000       92.187        7.813        0.897       99.103   8.9657E-01   2.7521E-02   2.5303E-02
     1823.000       92.265        7.735        0.898       99.102   8.9765E-01   2.7341E-02   2.5004E-02
     1823.000       92.343        7.657        0.899       99.101   8.9873E-01   2.7161E-02   2.4704E-02
     1823.000       92.421        7.579        0.900       99.100   8.9980E-01   2.6980E-02   2.4406E-02
     1823.000       92.499        7.501        0.901       99.099   9.0088E-01   2.6798E-02   2.4107E-02
     1823.000       92.576        7.424        0.902       99.098   9.0195E-01   2.6617E-02   2.3809E-02
     1823.000       92.654        7.346        0.903       99.097   9.0303E-01   2.6434E-02   2.3512E-02
     1823.000       92.732        7.268        0.904       99.096   9.0410E-01   2.6251E-02   2.3215E-02
     1823.000       92.810        7.190        0.905       99.095   9.0518E-01   2.6067E-02   2.2919E-02
     1823.000       92.887        7.113        0.906       99.094   9.0625E-01   2.5883E-02   2.2623E-02
     1823.000       92.965        7.035        0.907       99.093   9.0732E-01   2.5698E-02   2.2327E-02
     1823.000       93.042        6.958        0.908       99.092   9.0839E-01   2.5513E-02   2.2032E-02
     1823.000       93.120        6.880        0.909       99.091   9.0946E-01   2.5327E-02   2.1738E-02
     1823.000       93.197        6.803        0.910       99.090   9.1053E-01   2.5141E-02   2.1444E-02
     1823.000       93.275        6.725        0.911       99.089   9.1159E-01   2.4954E-02   2.1151E-02
     1823.000       93.352        6.648        0.912       99.088   9.1265E-01   2.4766E-02   2.0858E-02
     1823.000       93.429        6.571        0.913       99.087   9.1373E-01   2.4577E-02   2.0566E-02
     1823.000       93.506        6.494        0.914       99.086   9.1479E-01   2.4388E-02   2.0274E-02
     1823.000       93.584        6.416        0.915       99.085   9.1585E-01   2.4198E-02   1.9983E-02
     1823.000       93.661        6.339        0.916       99.084   9.1692E-01   2.4008E-02   1.9692E-02
     1823.000       93.738        6.262        0.917       99.083   9.1798E-01   2.3816E-02   1.9402E-02
     1823.000       93.815        6.185        0.918       99.082   9.1904E-01   2.3624E-02   1.9112E-02
     1823.000       93.892        6.108        0.919       99.081   9.2010E-01   2.3432E-02   1.8823E-02
     1823.000       93.969        6.031        0.920       99.080   9.2116E-01   2.3238E-02   1.8535E-02
     1823.000       94.046        5.954        0.921       99.079   9.2221E-01   2.3044E-02   1.8247E-02
     1823.000       94.123        5.877        0.922       99.078   9.2327E-01   2.2849E-02   1.7960E-02
     1823.000       94.200        5.800        0.923       99.077   9.2433E-01   2.2653E-02   1.7674E-02
     1823.000       94.277        5.723        0.924       99.076   9.2538E-01   2.2456E-02   1.7388E-02
     1823.000       94.354        5.646        0.925       99.075   9.2643E-01   2.2258E-02   1.7103E-02
     1823.000       94.430        5.570        0.926       99.074   9.2749E-01   2.2060E-02   1.6818E-02
     1823.000       94.507        5.493        0.927       99.073   9.2854E-01   2.1860E-02   1.6534E-02
     1823.000       94.584        5.416        0.928       99.072   9.2959E-01   2.1660E-02   1.6251E-02
     1823.000       94.660        5.340        0.929       99.071   9.3064E-01   2.1459E-02   1.5968E-02
     1823.000       94.737        5.263        0.930       99.070   9.3168E-01   2.1257E-02   1.5686E-02
     1823.000       94.814        5.186        0.931       99.069   9.3273E-01   2.1053E-02   1.5405E-02
     1823.000       94.890        5.110        0.932       99.068   9.3378E-01   2.0849E-02   1.5124E-02
     1823.000       94.967        5.033        0.933       99.067   9.3481E-01   2.0644E-02   1.4845E-02
     1823.000       95.043        4.957        0.934       99.066   9.3587E-01   2.0437E-02   1.4566E-02
     1823.000       95.120        4.880        0.935       99.065   9.3691E-01   2.0230E-02   1.4287E-02
     1823.000       95.196        4.804        0.936       99.064   9.3795E-01   2.0021E-02   1.4010E-02
     1823.000       95.272        4.728        0.937       99.063   9.3899E-01   1.9812E-02   1.3733E-02
     1823.000       95.349        4.651        0.938       99.062   9.4003E-01   1.9601E-02   1.3457E-02
     1823.000       95.425        4.575        0.939       99.061   9.4107E-01   1.9389E-02   1.3182E-02
     1823.000       95.501        4.499        0.940       99.060   9.4210E-01   1.9175E-02   1.2908E-02
     1823.000       95.577        4.423        0.941       99.059   9.4314E-01   1.8961E-02   1.2634E-02
     1823.000       95.653        4.347        0.942       99.058   9.4417E-01   1.8745E-02   1.2361E-02
     1823.000       95.729        4.271        0.943       99.057   9.4520E-01   1.8527E-02   1.2090E-02
     1823.000       95.805        4.195        0.944       99.056   9.4623E-01   1.8309E-02   1.1819E-02
     1823.000       95.881        4.119        0.945       99.055   9.4726E-01   1.8089E-02   1.1549E-02
     1823.000       95.957        4.043        0.946       99.054   9.4829E-01   1.7867E-02   1.1280E-02
     1823.000       96.033        3.967        0.947       99.053   9.4932E-01   1.7644E-02   1.1012E-02
     1823.000       96.109        3.891        0.948       99.052   9.5035E-01   1.7419E-02   1.0745E-02
     1823.000       96.185        3.815        0.949       99.051   9.5137E-01   1.7193E-02   1.0479E-02
     1823.000       96.261        3.739        0.950       99.050   9.5238E-01   1.6965E-02   1.0214E-02
     1823.000       96.337        3.663        0.951       99.049   9.5341E-01   1.6735E-02   9.9498E-03
     1823.000       96.412        3.588        0.952       99.048   9.5443E-01   1.6504E-02   9.6869E-03
     1823.000       96.488        3.512        0.953       99.047   9.5545E-01   1.6271E-02   9.4251E-03
     1823.000       96.564        3.436        0.954       99.046   9.5647E-01   1.6036E-02   9.1645E-03
     1823.000       96.639        3.361        0.955       99.045   9.5749E-01   1.5799E-02   8.9050E-03
     1823.000       96.715        3.285        0.956       99.044   9.5850E-01   1.5560E-02   8.6467E-03
     1823.000       96.790        3.210        0.957       99.043   9.5951E-01   1.5319E-02   8.3897E-03
     1823.000       96.866        3.134        0.958       99.042   9.6052E-01   1.5075E-02   8.1339E-03
     1823.000       96.941        3.059        0.959       99.041   9.6153E-01   1.4830E-02   7.8795E-03
     1823.000       97.017        2.983        0.960       99.040   9.6254E-01   1.4582E-02   7.6264E-03
     1823.000       97.092        2.908        0.961       99.039   9.6354E-01   1.4332E-02   7.3747E-03
     1823.000       97.167        2.833        0.962       99.038   9.6455E-01   1.4079E-02   7.1244E-03
     1823.000       97.242        2.758        0.963       99.037   9.6555E-01   1.3824E-02   6.8756E-03
     1823.000       97.318        2.682        0.964       99.036   9.6655E-01   1.3566E-02   6.6283E-03
     1823.000       97.393        2.607        0.965       99.035   9.6755E-01   1.3306E-02   6.3827E-03
     1823.000       97.468        2.532        0.966       99.034   9.6854E-01   1.3042E-02   6.1387E-03
     1823.000       97.543        2.457        0.967       99.033   9.6954E-01   1.2776E-02   5.8963E-03
     1823.000       97.618        2.382        0.968       99.032   9.7053E-01   1.2506E-02   5.6558E-03
     1823.000       97.693        2.307        0.969       99.031   9.7152E-01   1.2233E-02   5.4171E-03
     1823.000       97.768        2.232        0.970       99.030   9.7250E-01   1.1956E-02   5.1803E-03
     1823.000       97.843        2.157        0.971       99.029   9.7349E-01   1.1676E-02   4.9455E-03
     1823.000       97.918        2.082        0.972       99.028   9.7447E-01   1.1393E-02   4.7128E-03
     1823.000       97.993        2.007        0.973       99.027   9.7545E-01   1.1105E-02   4.4823E-03
     1823.000       98.068        1.932        0.974       99.026   9.7642E-01   1.0813E-02   4.2540E-03
     1823.000       98.143        1.857        0.975       99.025   9.7740E-01   1.0517E-02   4.0281E-03
     1823.000       98.217        1.783        0.976       99.024   9.7837E-01   1.0216E-02   3.8047E-03
     1823.000       98.292        1.708        0.977       99.023   9.7934E-01   9.9102E-03   3.5839E-03
     1823.000       98.367        1.633        0.978       99.022   9.8030E-01   9.5994E-03   3.3660E-03
     1823.000       98.442        1.558        0.979       99.021   9.8126E-01   9.2831E-03   3.1509E-03
     1823.000       98.516        1.484        0.980       99.020   9.8222E-01   8.9610E-03   2.9389E-03
     1823.000       98.591        1.409        0.981       99.019   9.8318E-01   8.6328E-03   2.7302E-03
     1823.000       98.665        1.335        0.982       99.018   9.8413E-01   8.2980E-03   2.5250E-03
     1823.000       98.740        1.260        0.983       99.017   9.8507E-01   7.9561E-03   2.3235E-03
     1823.000       98.814        1.186        0.984       99.016   9.8602E-01   7.6068E-03   2.1259E-03
     1823.000       98.889        1.111        0.985       99.015   9.8695E-01   7.2493E-03   1.9326E-03
     1823.000       98.963        1.037        0.986       99.014   9.8789E-01   6.8830E-03   1.7439E-03
     1823.000       99.037        0.963        0.987       99.013   9.8881E-01   6.5072E-03   1.5601E-03
     1823.000       99.112        0.888        0.988       99.012   9.8973E-01   6.1210E-03   1.3818E-03
     1823.000       99.186        0.814        0.989       99.011   9.9065E-01   5.7236E-03   1.2092E-03
     1823.000       99.260        0.740        0.990       99.010   9.9156E-01   5.3136E-03   1.0432E-03
     1823.000       99.334        0.666        0.991       99.009   9.9246E-01   4.8898E-03   8.8420E-04
     1823.000       99.408        0.592        0.992       99.008   9.9335E-01   4.4505E-03   7.3314E-04
     1823.000       99.482        0.518        0.993       99.007   9.9423E-01   3.9939E-03   5.9095E-04
     1823.000       99.556        0.444        0.994       99.006   9.9511E-01   3.5177E-03   4.5881E-04
     1823.000       99.630        0.370        0.995       99.005   9.9597E-01   3.0187E-03   3.3819E-04
     1823.000       99.704        0.296        0.996       99.004   9.9681E-01   2.4935E-03   2.3093E-04
     1823.000       99.778        0.222        0.997       99.003   9.9764E-01   1.9369E-03   1.3947E-04
     1823.000       99.852        0.148        0.998       99.002   9.9846E-01   1.3427E-03   6.7074E-05
     1823.000       99.926        0.074        0.999       99.001   9.9924E-01   7.0158E-04   1.8327E-05
     1823.000      100.000        0.000        1.000       99.000   1.0000E+00   0.0000E+00   0.0000E+00
