   Temp (K)   mole % SiO2  mole % ZnO     wt % SiO2    wt % ZnO     a(SiO2)      a(ZnO)     a(Zn2SiO4)  
     1833.000        0.135       99.865        0.001       99.999   3.6104E-05   9.9601E-01   1.3183E-03
     1833.000        0.271       99.729        0.002       99.998   7.2748E-05   9.9202E-01   2.6352E-03
     1833.000        0.406       99.594        0.003       99.997   1.0994E-04   9.8804E-01   3.9505E-03
     1833.000        0.541       99.459        0.004       99.996   1.4769E-04   9.8406E-01   5.2643E-03
     1833.000        0.676       99.324        0.005       99.995   1.8601E-04   9.8008E-01   6.5766E-03
     1833.000        0.811       99.189        0.006       99.994   2.2490E-04   9.7611E-01   7.8873E-03
     1833.000        0.946       99.054        0.007       99.993   2.6438E-04   9.7215E-01   9.1965E-03
     1833.000        1.081       98.919        0.008       99.992   3.0444E-04   9.6818E-01   1.0504E-02
     1833.000        1.216       98.784        0.009       99.991   3.4512E-04   9.6422E-01   1.1810E-02
     1833.000        1.350       98.650        0.010       99.990   3.8640E-04   9.6027E-01   1.3115E-02
     1833.000        1.485       98.515        0.011       99.989   4.2831E-04   9.5632E-01   1.4418E-02
     1833.000        1.619       98.381        0.012       99.988   4.7085E-04   9.5237E-01   1.5719E-02
     1833.000        1.753       98.247        0.013       99.987   5.1402E-04   9.4843E-01   1.7019E-02
     1833.000        1.887       98.113        0.014       99.986   5.5786E-04   9.4449E-01   1.8317E-02
     1833.000        2.022       97.978        0.015       99.985   6.0236E-04   9.4055E-01   1.9614E-02
     1833.000        2.156       97.844        0.016       99.984   6.4752E-04   9.3663E-01   2.0909E-02
     1833.000        2.290       97.710        0.017       99.983   6.9338E-04   9.3270E-01   2.2202E-02
     1833.000        2.423       97.577        0.018       99.982   7.3993E-04   9.2878E-01   2.3494E-02
     1833.000        2.557       97.443        0.019       99.981   7.8719E-04   9.2486E-01   2.4784E-02
     1833.000        2.691       97.309        0.020       99.980   8.3516E-04   9.2095E-01   2.6072E-02
     1833.000        2.824       97.176        0.021       99.979   8.8387E-04   9.1704E-01   2.7359E-02
     1833.000        2.958       97.042        0.022       99.978   9.3331E-04   9.1313E-01   2.8644E-02
     1833.000        3.091       96.909        0.023       99.977   9.8350E-04   9.0923E-01   2.9927E-02
     1833.000        3.224       96.776        0.024       99.976   1.0345E-03   9.0534E-01   3.1209E-02
     1833.000        3.357       96.643        0.025       99.975   1.0862E-03   9.0145E-01   3.2489E-02
     1833.000        3.491       96.509        0.026       99.974   1.1387E-03   8.9756E-01   3.3767E-02
     1833.000        3.624       96.376        0.027       99.973   1.1921E-03   8.9368E-01   3.5044E-02
     1833.000        3.756       96.244        0.028       99.972   1.2462E-03   8.8980E-01   3.6318E-02
     1833.000        3.889       96.111        0.029       99.971   1.3012E-03   8.8592E-01   3.7591E-02
     1833.000        4.022       95.978        0.030       99.970   1.3571E-03   8.8206E-01   3.8862E-02
     1833.000        4.155       95.845        0.031       99.969   1.4138E-03   8.7819E-01   4.0132E-02
     1833.000        4.287       95.713        0.032       99.968   1.4713E-03   8.7433E-01   4.1400E-02
     1833.000        4.419       95.581        0.033       99.967   1.5298E-03   8.7047E-01   4.2665E-02
     1833.000        4.552       95.448        0.034       99.966   1.5891E-03   8.6662E-01   4.3929E-02
     1833.000        4.684       95.316        0.035       99.965   1.6494E-03   8.6277E-01   4.5191E-02
     1833.000        4.816       95.184        0.036       99.964   1.7106E-03   8.5893E-01   4.6452E-02
     1833.000        4.948       95.052        0.037       99.963   1.7727E-03   8.5510E-01   4.7710E-02
     1833.000        5.080       94.920        0.038       99.962   1.8358E-03   8.5126E-01   4.8966E-02
     1833.000        5.212       94.788        0.039       99.961   1.8999E-03   8.4744E-01   5.0221E-02
     1833.000        5.344       94.656        0.040       99.960   1.9650E-03   8.4361E-01   5.1474E-02
     1833.000        5.475       94.525        0.041       99.959   2.0311E-03   8.3979E-01   5.2724E-02
     1833.000        5.607       94.393        0.042       99.958   2.0982E-03   8.3598E-01   5.3973E-02
     1833.000        5.739       94.261        0.043       99.957   2.1663E-03   8.3217E-01   5.5220E-02
     1833.000        5.870       94.130        0.044       99.956   2.2356E-03   8.2837E-01   5.6465E-02
     1833.000        6.001       93.999        0.045       99.955   2.3059E-03   8.2457E-01   5.7708E-02
     1833.000        6.132       93.868        0.046       99.954   2.3773E-03   8.2078E-01   5.8948E-02
     1833.000        6.264       93.736        0.047       99.953   2.4498E-03   8.1699E-01   6.0187E-02
     1833.000        6.395       93.605        0.048       99.952   2.5235E-03   8.1320E-01   6.1424E-02
     1833.000        6.526       93.474        0.049       99.951   2.5983E-03   8.0942E-01   6.2658E-02
     1833.000        6.656       93.344        0.050       99.950   2.6743E-03   8.0565E-01   6.3891E-02
     1833.000        6.787       93.213        0.051       99.949   2.7515E-03   8.0188E-01   6.5121E-02
     1833.000        6.918       93.082        0.052       99.948   2.8299E-03   7.9812E-01   6.6350E-02
     1833.000        7.048       92.952        0.053       99.947   2.9095E-03   7.9436E-01   6.7576E-02
     1833.000        7.179       92.821        0.054       99.946   2.9904E-03   7.9061E-01   6.8800E-02
     1833.000        7.309       92.691        0.055       99.945   3.0726E-03   7.8686E-01   7.0022E-02
     1833.000        7.440       92.560        0.056       99.944   3.1560E-03   7.8312E-01   7.1241E-02
     1833.000        7.570       92.430        0.057       99.943   3.2408E-03   7.7938E-01   7.2459E-02
     1833.000        7.700       92.300        0.058       99.942   3.3269E-03   7.7565E-01   7.3674E-02
     1833.000        7.830       92.170        0.059       99.941   3.4144E-03   7.7192E-01   7.4887E-02
     1833.000        7.960       92.040        0.060       99.940   3.5033E-03   7.6820E-01   7.6098E-02
     1833.000        8.090       91.910        0.061       99.939   3.5936E-03   7.6449E-01   7.7306E-02
     1833.000        8.220       91.780        0.062       99.938   3.6854E-03   7.6078E-01   7.8512E-02
     1833.000        8.349       91.651        0.063       99.937   3.7785E-03   7.5707E-01   7.9715E-02
     1833.000        8.479       91.521        0.064       99.936   3.8732E-03   7.5338E-01   8.0916E-02
     1833.000        8.608       91.392        0.065       99.935   3.9694E-03   7.4968E-01   8.2115E-02
     1833.000        8.738       91.262        0.066       99.934   4.0672E-03   7.4600E-01   8.3311E-02
     1833.000        8.867       91.133        0.067       99.933   4.1665E-03   7.4231E-01   8.4505E-02
     1833.000        8.996       91.004        0.068       99.932   4.2674E-03   7.3864E-01   8.5697E-02
     1833.000        9.125       90.875        0.069       99.931   4.3699E-03   7.3497E-01   8.6886E-02
     1833.000        9.254       90.746        0.070       99.930   4.4740E-03   7.3131E-01   8.8072E-02
     1833.000        9.383       90.617        0.071       99.929   4.5798E-03   7.2765E-01   8.9256E-02
     1833.000        9.512       90.488        0.072       99.928   4.6874E-03   7.2400E-01   9.0437E-02
     1833.000        9.641       90.359        0.073       99.927   4.7966E-03   7.2035E-01   9.1616E-02
     1833.000        9.770       90.230        0.074       99.926   4.9076E-03   7.1672E-01   9.2791E-02
     1833.000        9.898       90.102        0.075       99.925   5.0205E-03   7.1308E-01   9.3965E-02
     1833.000       10.027       89.973        0.076       99.924   5.1351E-03   7.0946E-01   9.5135E-02
     1833.000       10.155       89.845        0.077       99.923   5.2516E-03   7.0584E-01   9.6303E-02
     1833.000       10.284       89.716        0.078       99.922   5.3700E-03   7.0222E-01   9.7468E-02
     1833.000       10.412       89.588        0.079       99.921   5.4902E-03   6.9862E-01   9.8630E-02
     1833.000       10.540       89.460        0.080       99.920   5.6125E-03   6.9502E-01   9.9789E-02
     1833.000       10.668       89.332        0.081       99.919   5.7367E-03   6.9142E-01   1.0095E-01
     1833.000       10.796       89.204        0.082       99.918   5.8629E-03   6.8784E-01   1.0210E-01
     1833.000       10.924       89.076        0.083       99.917   5.9912E-03   6.8426E-01   1.0325E-01
     1833.000       11.052       88.948        0.084       99.916   6.1216E-03   6.8068E-01   1.0440E-01
     1833.000       11.179       88.821        0.085       99.915   6.2540E-03   6.7712E-01   1.0554E-01
     1833.000       11.307       88.693        0.086       99.914   6.3887E-03   6.7356E-01   1.0668E-01
     1833.000       11.435       88.565        0.087       99.913   6.5255E-03   6.7000E-01   1.0782E-01
     1833.000       11.562       88.438        0.088       99.912   6.6646E-03   6.6646E-01   1.0896E-01
     1833.000       11.689       88.311        0.089       99.911   6.8060E-03   6.6292E-01   1.1009E-01
     1833.000       11.817       88.183        0.090       99.910   6.9496E-03   6.5939E-01   1.1122E-01
     1833.000       11.944       88.056        0.091       99.909   7.0956E-03   6.5586E-01   1.1235E-01
     1833.000       12.071       87.929        0.092       99.908   7.2440E-03   6.5235E-01   1.1347E-01
     1833.000       12.198       87.802        0.093       99.907   7.3947E-03   6.4884E-01   1.1459E-01
     1833.000       12.325       87.675        0.094       99.906   7.5480E-03   6.4534E-01   1.1570E-01
     1833.000       12.452       87.548        0.095       99.905   7.7038E-03   6.4184E-01   1.1682E-01
     1833.000       12.579       87.421        0.096       99.904   7.8621E-03   6.3836E-01   1.1793E-01
     1833.000       12.705       87.295        0.097       99.903   8.0230E-03   6.3488E-01   1.1903E-01
     1833.000       12.832       87.168        0.098       99.902   8.1866E-03   6.3141E-01   1.2013E-01
     1833.000       12.958       87.042        0.099       99.901   8.3528E-03   6.2795E-01   1.2123E-01
     1833.000       13.085       86.915        0.100       99.900   8.5218E-03   6.2449E-01   1.2233E-01
     1833.000       13.211       86.789        0.101       99.899   8.6935E-03   6.2105E-01   1.2342E-01
     1833.000       13.337       86.663        0.102       99.898   8.8680E-03   6.1761E-01   1.2451E-01
     1833.000       13.463       86.537        0.103       99.897   9.0454E-03   6.1418E-01   1.2559E-01
     1833.000       13.589       86.411        0.104       99.896   9.2257E-03   6.1076E-01   1.2667E-01
     1833.000       13.715       86.285        0.105       99.895   9.4090E-03   6.0735E-01   1.2775E-01
     1833.000       13.841       86.159        0.106       99.894   9.5952E-03   6.0394E-01   1.2882E-01
     1833.000       13.967       86.033        0.107       99.893   9.7845E-03   6.0055E-01   1.2989E-01
     1833.000       14.093       85.907        0.108       99.892   9.9770E-03   5.9716E-01   1.3095E-01
     1833.000       14.218       85.782        0.109       99.891   1.0173E-02   5.9378E-01   1.3201E-01
     1833.000       14.344       85.656        0.110       99.890   1.0371E-02   5.9041E-01   1.3307E-01
     1833.000       14.469       85.531        0.111       99.889   1.0573E-02   5.8705E-01   1.3412E-01
     1833.000       14.595       85.405        0.112       99.888   1.0779E-02   5.8370E-01   1.3517E-01
     1833.000       14.720       85.280        0.113       99.887   1.0987E-02   5.8036E-01   1.3622E-01
     1833.000       14.845       85.155        0.114       99.886   1.1199E-02   5.7703E-01   1.3726E-01
     1833.000       14.970       85.030        0.115       99.885   1.1415E-02   5.7371E-01   1.3829E-01
     1833.000       15.095       84.905        0.116       99.884   1.1634E-02   5.7039E-01   1.3932E-01
     1833.000       15.220       84.780        0.117       99.883   1.1857E-02   5.6709E-01   1.4035E-01
     1833.000       15.345       84.655        0.118       99.882   1.2083E-02   5.6380E-01   1.4137E-01
     1833.000       15.470       84.530        0.119       99.881   1.2313E-02   5.6051E-01   1.4239E-01
     1833.000       15.595       84.405        0.120       99.880   1.2547E-02   5.5724E-01   1.4340E-01
     1833.000       15.719       84.281        0.121       99.879   1.2784E-02   5.5398E-01   1.4441E-01
     1833.000       15.844       84.156        0.122       99.878   1.3026E-02   5.5072E-01   1.4542E-01
     1833.000       15.968       84.032        0.123       99.877   1.3271E-02   5.4748E-01   1.4641E-01
     1833.000       16.093       83.907        0.124       99.876   1.3520E-02   5.4425E-01   1.4741E-01
     1833.000       16.217       83.783        0.125       99.875   1.3774E-02   5.4103E-01   1.4840E-01
     1833.000       16.341       83.659        0.126       99.874   1.4031E-02   5.3782E-01   1.4938E-01
     1833.000       16.465       83.535        0.127       99.873   1.4293E-02   5.3462E-01   1.5036E-01
     1833.000       16.589       83.411        0.128       99.872   1.4558E-02   5.3143E-01   1.5134E-01
     1833.000       16.713       83.287        0.129       99.871   1.4828E-02   5.2825E-01   1.5231E-01
     1833.000       16.837       83.163        0.130       99.870   1.5103E-02   5.2509E-01   1.5327E-01
     1833.000       16.961       83.039        0.131       99.869   1.5382E-02   5.2193E-01   1.5423E-01
     1833.000       17.084       82.916        0.132       99.868   1.5665E-02   5.1879E-01   1.5518E-01
     1833.000       17.208       82.792        0.133       99.867   1.5953E-02   5.1565E-01   1.5613E-01
     1833.000       17.332       82.668        0.134       99.866   1.6245E-02   5.1253E-01   1.5707E-01
     1833.000       17.455       82.545        0.135       99.865   1.6542E-02   5.0942E-01   1.5801E-01
     1833.000       17.578       82.422        0.136       99.864   1.6844E-02   5.0633E-01   1.5894E-01
     1833.000       17.702       82.298        0.137       99.863   1.7150E-02   5.0324E-01   1.5987E-01
     1833.000       17.825       82.175        0.138       99.862   1.7461E-02   5.0017E-01   1.6079E-01
     1833.000       17.948       82.052        0.139       99.861   1.7778E-02   4.9711E-01   1.6170E-01
     1833.000       18.071       81.929        0.140       99.860   1.8099E-02   4.9406E-01   1.6261E-01
     1833.000       18.194       81.806        0.141       99.859   1.8425E-02   4.9103E-01   1.6352E-01
     1833.000       18.317       81.683        0.142       99.858   1.8757E-02   4.8800E-01   1.6441E-01
     1833.000       18.439       81.561        0.143       99.857   1.9093E-02   4.8499E-01   1.6530E-01
     1833.000       18.562       81.438        0.144       99.856   1.9435E-02   4.8200E-01   1.6619E-01
     1833.000       18.685       81.315        0.145       99.855   1.9782E-02   4.7901E-01   1.6707E-01
     1833.000       18.807       81.193        0.146       99.854   2.0134E-02   4.7604E-01   1.6794E-01
     1833.000       18.930       81.070        0.147       99.853   2.0492E-02   4.7308E-01   1.6881E-01
     1833.000       19.052       80.948        0.148       99.852   2.0855E-02   4.7014E-01   1.6967E-01
     1833.000       19.174       80.826        0.149       99.851   2.1224E-02   4.6721E-01   1.7052E-01
     1833.000       19.296       80.704        0.150       99.850   2.1598E-02   4.6429E-01   1.7137E-01
     1833.000       19.418       80.582        0.151       99.849   2.1978E-02   4.6139E-01   1.7221E-01
     1833.000       19.540       80.460        0.152       99.848   2.2364E-02   4.5850E-01   1.7304E-01
     1833.000       19.662       80.338        0.153       99.847   2.2755E-02   4.5562E-01   1.7387E-01
     1833.000       19.784       80.216        0.154       99.846   2.3152E-02   4.5276E-01   1.7469E-01
     1833.000       19.906       80.094        0.155       99.845   2.3556E-02   4.4992E-01   1.7551E-01
     1833.000       20.028       79.972        0.156       99.844   2.3965E-02   4.4708E-01   1.7632E-01
     1833.000       20.149       79.851        0.157       99.843   2.4380E-02   4.4427E-01   1.7712E-01
     1833.000       20.271       79.729        0.158       99.842   2.4801E-02   4.4146E-01   1.7791E-01
     1833.000       20.392       79.608        0.159       99.841   2.5229E-02   4.3867E-01   1.7870E-01
     1833.000       20.514       79.486        0.160       99.840   2.5662E-02   4.3590E-01   1.7948E-01
     1833.000       20.635       79.365        0.161       99.839   2.6102E-02   4.3314E-01   1.8025E-01
     1833.000       20.756       79.244        0.162       99.838   2.6548E-02   4.3040E-01   1.8102E-01
     1833.000       20.877       79.123        0.163       99.837   2.7001E-02   4.2767E-01   1.8178E-01
     1833.000       20.998       79.002        0.164       99.836   2.7460E-02   4.2496E-01   1.8253E-01
     1833.000       21.119       78.881        0.165       99.835   2.7925E-02   4.2226E-01   1.8327E-01
     1833.000       21.240       78.760        0.166       99.834   2.8397E-02   4.1958E-01   1.8401E-01
     1833.000       21.361       78.639        0.167       99.833   2.8876E-02   4.1691E-01   1.8474E-01
     1833.000       21.482       78.518        0.168       99.832   2.9361E-02   4.1426E-01   1.8546E-01
     1833.000       21.602       78.398        0.169       99.831   2.9852E-02   4.1162E-01   1.8617E-01
     1833.000       21.723       78.277        0.170       99.830   3.0351E-02   4.0900E-01   1.8688E-01
     1833.000       21.843       78.157        0.171       99.829   3.0856E-02   4.0640E-01   1.8758E-01
     1833.000       21.964       78.036        0.172       99.828   3.1368E-02   4.0381E-01   1.8827E-01
     1833.000       22.084       77.916        0.173       99.827   3.1887E-02   4.0124E-01   1.8896E-01
     1833.000       22.204       77.796        0.174       99.826   3.2413E-02   3.9869E-01   1.8963E-01
     1833.000       22.324       77.676        0.175       99.825   3.2945E-02   3.9615E-01   1.9030E-01
     1833.000       22.444       77.556        0.176       99.824   3.3485E-02   3.9362E-01   1.9096E-01
     1833.000       22.564       77.436        0.177       99.823   3.4032E-02   3.9112E-01   1.9162E-01
     1833.000       22.684       77.316        0.178       99.822   3.4585E-02   3.8863E-01   1.9226E-01
     1833.000       22.804       77.196        0.179       99.821   3.5146E-02   3.8615E-01   1.9290E-01
     1833.000       22.924       77.076        0.180       99.820   3.5714E-02   3.8370E-01   1.9353E-01
     1833.000       23.044       76.956        0.181       99.819   3.6288E-02   3.8126E-01   1.9415E-01
     1833.000       23.163       76.837        0.182       99.818   3.6870E-02   3.7883E-01   1.9477E-01
     1833.000       23.283       76.717        0.183       99.817   3.7460E-02   3.7643E-01   1.9537E-01
     1833.000       23.402       76.598        0.184       99.816   3.8056E-02   3.7403E-01   1.9597E-01
     1833.000       23.521       76.479        0.185       99.815   3.8660E-02   3.7166E-01   1.9656E-01
     1833.000       23.641       76.359        0.186       99.814   3.9271E-02   3.6930E-01   1.9714E-01
     1833.000       23.760       76.240        0.187       99.813   3.9889E-02   3.6697E-01   1.9771E-01
     1833.000       23.879       76.121        0.188       99.812   4.0514E-02   3.6464E-01   1.9828E-01
     1833.000       23.998       76.002        0.189       99.811   4.1147E-02   3.6234E-01   1.9884E-01
     1833.000       24.117       75.883        0.190       99.810   4.1787E-02   3.6005E-01   1.9939E-01
     1833.000       24.236       75.764        0.191       99.809   4.2434E-02   3.5778E-01   1.9993E-01
     1833.000       24.355       75.645        0.192       99.808   4.3088E-02   3.5552E-01   2.0046E-01
     1833.000       24.473       75.527        0.193       99.807   4.3750E-02   3.5328E-01   2.0099E-01
     1833.000       24.592       75.408        0.194       99.806   4.4420E-02   3.5106E-01   2.0151E-01
     1833.000       24.711       75.289        0.195       99.805   4.5096E-02   3.4886E-01   2.0201E-01
     1833.000       24.829       75.171        0.196       99.804   4.5780E-02   3.4667E-01   2.0252E-01
     1833.000       24.947       75.053        0.197       99.803   4.6471E-02   3.4450E-01   2.0301E-01
     1833.000       25.066       74.934        0.198       99.802   4.7170E-02   3.4235E-01   2.0349E-01
     1833.000       25.184       74.816        0.199       99.801   4.7876E-02   3.4022E-01   2.0397E-01
     1833.000       25.302       74.698        0.200       99.800   4.8589E-02   3.3810E-01   2.0444E-01
     1833.000       25.420       74.580        0.201       99.799   4.9309E-02   3.3600E-01   2.0490E-01
     1833.000       25.538       74.462        0.202       99.798   5.0037E-02   3.3391E-01   2.0535E-01
     1833.000       25.656       74.344        0.203       99.797   5.0773E-02   3.3184E-01   2.0579E-01
     1833.000       25.774       74.226        0.204       99.796   5.1515E-02   3.2979E-01   2.0623E-01
     1833.000       25.892       74.108        0.205       99.795   5.2264E-02   3.2776E-01   2.0666E-01
     1833.000       26.010       73.990        0.206       99.794   5.3021E-02   3.2574E-01   2.0708E-01
     1833.000       26.127       73.873        0.207       99.793   5.3786E-02   3.2374E-01   2.0749E-01
     1833.000       26.245       73.755        0.208       99.792   5.4557E-02   3.2176E-01   2.0790E-01
     1833.000       26.362       73.638        0.209       99.791   5.5335E-02   3.1979E-01   2.0829E-01
     1833.000       26.480       73.520        0.210       99.790   5.6121E-02   3.1784E-01   2.0868E-01
     1833.000       26.597       73.403        0.211       99.789   5.6914E-02   3.1591E-01   2.0906E-01
     1833.000       26.714       73.286        0.212       99.788   5.7713E-02   3.1399E-01   2.0943E-01
     1833.000       26.831       73.169        0.213       99.787   5.8520E-02   3.1209E-01   2.0980E-01
     1833.000       26.948       73.052        0.214       99.786   5.9334E-02   3.1020E-01   2.1015E-01
     1833.000       27.065       72.935        0.215       99.785   6.0155E-02   3.0833E-01   2.1050E-01
     1833.000       27.182       72.818        0.216       99.784   6.0983E-02   3.0648E-01   2.1084E-01
     1833.000       27.299       72.701        0.217       99.783   6.1818E-02   3.0465E-01   2.1118E-01
     1833.000       27.416       72.584        0.218       99.782   6.2660E-02   3.0283E-01   2.1150E-01
     1833.000       27.533       72.467        0.219       99.781   6.3508E-02   3.0102E-01   2.1182E-01
     1833.000       27.649       72.351        0.220       99.780   6.4364E-02   2.9924E-01   2.1213E-01
     1833.000       27.766       72.234        0.221       99.779   6.5226E-02   2.9746E-01   2.1244E-01
     1833.000       27.882       72.118        0.222       99.778   6.6094E-02   2.9571E-01   2.1273E-01
     1833.000       27.999       72.001        0.223       99.777   6.6970E-02   2.9397E-01   2.1302E-01
     1833.000       28.115       71.885        0.224       99.776   6.7852E-02   2.9224E-01   2.1330E-01
     1833.000       28.231       71.769        0.225       99.775   6.8741E-02   2.9053E-01   2.1357E-01
     1833.000       28.347       71.653        0.226       99.774   6.9637E-02   2.8884E-01   2.1384E-01
     1833.000       28.463       71.537        0.227       99.773   7.0538E-02   2.8716E-01   2.1410E-01
     1833.000       28.579       71.421        0.228       99.772   7.1447E-02   2.8550E-01   2.1435E-01
     1833.000       28.695       71.305        0.229       99.771   7.2361E-02   2.8385E-01   2.1460E-01
     1833.000       28.811       71.189        0.230       99.770   7.3283E-02   2.8222E-01   2.1483E-01
     1833.000       28.927       71.073        0.231       99.769   7.4210E-02   2.8060E-01   2.1506E-01
     1833.000       29.043       70.957        0.232       99.768   7.5143E-02   2.7899E-01   2.1529E-01
     1833.000       29.158       70.842        0.233       99.767   7.6083E-02   2.7740E-01   2.1550E-01
     1833.000       29.274       70.726        0.234       99.766   7.7029E-02   2.7583E-01   2.1571E-01
     1833.000       29.389       70.611        0.235       99.765   7.7981E-02   2.7427E-01   2.1592E-01
     1833.000       29.505       70.495        0.236       99.764   7.8939E-02   2.7272E-01   2.1611E-01
     1833.000       29.620       70.380        0.237       99.763   7.9903E-02   2.7119E-01   2.1630E-01
     1833.000       29.735       70.265        0.238       99.762   8.0873E-02   2.6967E-01   2.1648E-01
     1833.000       29.850       70.150        0.239       99.761   8.1849E-02   2.6817E-01   2.1666E-01
     1833.000       29.965       70.035        0.240       99.760   8.2831E-02   2.6668E-01   2.1683E-01
     1833.000       30.080       69.920        0.241       99.759   8.3818E-02   2.6521E-01   2.1699E-01
     1833.000       30.195       69.805        0.242       99.758   8.4811E-02   2.6374E-01   2.1715E-01
     1833.000       30.310       69.690        0.243       99.757   8.5810E-02   2.6229E-01   2.1730E-01
     1833.000       30.425       69.575        0.244       99.756   8.6814E-02   2.6086E-01   2.1744E-01
     1833.000       30.540       69.460        0.245       99.755   8.7824E-02   2.5944E-01   2.1758E-01
     1833.000       30.654       69.346        0.246       99.754   8.8839E-02   2.5803E-01   2.1771E-01
     1833.000       30.769       69.231        0.247       99.753   8.9860E-02   2.5663E-01   2.1784E-01
     1833.000       30.883       69.117        0.248       99.752   9.0886E-02   2.5525E-01   2.1795E-01
     1833.000       30.998       69.002        0.249       99.751   9.1917E-02   2.5388E-01   2.1807E-01
     1833.000       31.112       68.888        0.250       99.750   9.2953E-02   2.5252E-01   2.1817E-01
     1833.000       31.227       68.773        0.251       99.749   9.3995E-02   2.5118E-01   2.1828E-01
     1833.000       31.341       68.659        0.252       99.748   9.5041E-02   2.4985E-01   2.1837E-01
     1833.000       31.455       68.545        0.253       99.747   9.6093E-02   2.4852E-01   2.1846E-01
     1833.000       31.569       68.431        0.254       99.746   9.7150E-02   2.4722E-01   2.1854E-01
     1833.000       31.683       68.317        0.255       99.745   9.8212E-02   2.4592E-01   2.1862E-01
     1833.000       31.797       68.203        0.256       99.744   9.9279E-02   2.4464E-01   2.1869E-01
     1833.000       31.911       68.089        0.257       99.743   1.0035E-01   2.4337E-01   2.1876E-01
     1833.000       32.024       67.976        0.258       99.742   1.0143E-01   2.4210E-01   2.1882E-01
     1833.000       32.138       67.862        0.259       99.741   1.0251E-01   2.4086E-01   2.1888E-01
     1833.000       32.252       67.748        0.260       99.740   1.0359E-01   2.3962E-01   2.1893E-01
     1833.000       32.365       67.635        0.261       99.739   1.0468E-01   2.3839E-01   2.1898E-01
     1833.000       32.479       67.521        0.262       99.738   1.0578E-01   2.3718E-01   2.1902E-01
     1833.000       32.592       67.408        0.263       99.737   1.0687E-01   2.3597E-01   2.1905E-01
     1833.000       32.705       67.295        0.264       99.736   1.0798E-01   2.3478E-01   2.1908E-01
     1833.000       32.818       67.182        0.265       99.735   1.0909E-01   2.3360E-01   2.1910E-01
     1833.000       32.932       67.068        0.266       99.734   1.1020E-01   2.3243E-01   2.1912E-01
     1833.000       33.045       66.955        0.267       99.733   1.1131E-01   2.3127E-01   2.1914E-01
     1833.000       33.158       66.842        0.268       99.732   1.1243E-01   2.3012E-01   2.1915E-01
     1833.000       33.271       66.729        0.269       99.731   1.1356E-01   2.2898E-01   2.1915E-01
     1833.000       33.384       66.616        0.270       99.730   1.1468E-01   2.2786E-01   2.1915E-01
     1833.000       33.496       66.504        0.271       99.729   1.1581E-01   2.2674E-01   2.1915E-01
     1833.000       33.609       66.391        0.272       99.728   1.1694E-01   2.2563E-01   2.1914E-01
     1833.000       33.722       66.278        0.273       99.727   1.1808E-01   2.2453E-01   2.1913E-01
     1833.000       33.834       66.166        0.274       99.726   1.1923E-01   2.2344E-01   2.1911E-01
     1833.000       33.947       66.053        0.275       99.725   1.2038E-01   2.2237E-01   2.1909E-01
     1833.000       34.059       65.941        0.276       99.724   1.2153E-01   2.2130E-01   2.1906E-01
     1833.000       34.172       65.828        0.277       99.723   1.2268E-01   2.2024E-01   2.1903E-01
     1833.000       34.284       65.716        0.278       99.722   1.2384E-01   2.1918E-01   2.1899E-01
     1833.000       34.396       65.604        0.279       99.721   1.2500E-01   2.1814E-01   2.1895E-01
     1833.000       34.508       65.492        0.280       99.720   1.2617E-01   2.1711E-01   2.1891E-01
     1833.000       34.620       65.380        0.281       99.719   1.2734E-01   2.1609E-01   2.1886E-01
     1833.000       34.732       65.268        0.282       99.718   1.2851E-01   2.1507E-01   2.1880E-01
     1833.000       34.844       65.156        0.283       99.717   1.2969E-01   2.1407E-01   2.1875E-01
     1833.000       34.956       65.044        0.284       99.716   1.3087E-01   2.1307E-01   2.1869E-01
     1833.000       35.068       64.932        0.285       99.715   1.3205E-01   2.1208E-01   2.1862E-01
     1833.000       35.180       64.820        0.286       99.714   1.3324E-01   2.1110E-01   2.1855E-01
     1833.000       35.291       64.709        0.287       99.713   1.3443E-01   2.1013E-01   2.1848E-01
     1833.000       35.403       64.597        0.288       99.712   1.3562E-01   2.0917E-01   2.1840E-01
     1833.000       35.514       64.486        0.289       99.711   1.3681E-01   2.0822E-01   2.1832E-01
     1833.000       35.626       64.374        0.290       99.710   1.3801E-01   2.0727E-01   2.1824E-01
     1833.000       35.737       64.263        0.291       99.709   1.3921E-01   2.0633E-01   2.1815E-01
     1833.000       35.848       64.152        0.292       99.708   1.4042E-01   2.0540E-01   2.1806E-01
     1833.000       35.959       64.041        0.293       99.707   1.4162E-01   2.0448E-01   2.1796E-01
     1833.000       36.071       63.929        0.294       99.706   1.4283E-01   2.0357E-01   2.1787E-01
     1833.000       36.182       63.818        0.295       99.705   1.4405E-01   2.0266E-01   2.1776E-01
     1833.000       36.293       63.707        0.296       99.704   1.4526E-01   2.0176E-01   2.1766E-01
     1833.000       36.404       63.596        0.297       99.703   1.4648E-01   2.0087E-01   2.1755E-01
     1833.000       36.514       63.486        0.298       99.702   1.4770E-01   1.9999E-01   2.1744E-01
     1833.000       36.625       63.375        0.299       99.701   1.4892E-01   1.9911E-01   2.1732E-01
     1833.000       36.736       63.264        0.300       99.700   1.5015E-01   1.9824E-01   2.1720E-01
     1833.000       36.847       63.153        0.301       99.699   1.5138E-01   1.9738E-01   2.1708E-01
     1833.000       36.957       63.043        0.302       99.698   1.5261E-01   1.9653E-01   2.1695E-01
     1833.000       37.068       62.932        0.303       99.697   1.5384E-01   1.9568E-01   2.1683E-01
     1833.000       37.178       62.822        0.304       99.696   1.5508E-01   1.9484E-01   2.1669E-01
     1833.000       37.288       62.712        0.305       99.695   1.5632E-01   1.9400E-01   2.1656E-01
     1833.000       37.399       62.601        0.306       99.694   1.5756E-01   1.9318E-01   2.1642E-01
     1833.000       37.509       62.491        0.307       99.693   1.5880E-01   1.9236E-01   2.1628E-01
     1833.000       37.619       62.381        0.308       99.692   1.6005E-01   1.9154E-01   2.1614E-01
     1833.000       37.729       62.271        0.309       99.691   1.6129E-01   1.9074E-01   2.1599E-01
     1833.000       37.839       62.161        0.310       99.690   1.6254E-01   1.8994E-01   2.1584E-01
     1833.000       37.949       62.051        0.311       99.689   1.6380E-01   1.8914E-01   2.1569E-01
     1833.000       38.059       61.941        0.312       99.688   1.6505E-01   1.8835E-01   2.1553E-01
     1833.000       38.169       61.831        0.313       99.687   1.6631E-01   1.8757E-01   2.1537E-01
     1833.000       38.278       61.722        0.314       99.686   1.6756E-01   1.8680E-01   2.1521E-01
     1833.000       38.388       61.612        0.315       99.685   1.6882E-01   1.8603E-01   2.1505E-01
     1833.000       38.498       61.502        0.316       99.684   1.7009E-01   1.8527E-01   2.1488E-01
     1833.000       38.607       61.393        0.317       99.683   1.7135E-01   1.8451E-01   2.1471E-01
     1833.000       38.717       61.283        0.318       99.682   1.7262E-01   1.8376E-01   2.1454E-01
     1833.000       38.826       61.174        0.319       99.681   1.7389E-01   1.8301E-01   2.1437E-01
     1833.000       38.935       61.065        0.320       99.680   1.7515E-01   1.8227E-01   2.1419E-01
     1833.000       39.044       60.956        0.321       99.679   1.7643E-01   1.8154E-01   2.1401E-01
     1833.000       39.154       60.846        0.322       99.678   1.7770E-01   1.8081E-01   2.1383E-01
     1833.000       39.263       60.737        0.323       99.677   1.7897E-01   1.8009E-01   2.1365E-01
     1833.000       39.372       60.628        0.324       99.676   1.8025E-01   1.7937E-01   2.1346E-01
     1833.000       39.481       60.519        0.325       99.675   1.8153E-01   1.7866E-01   2.1327E-01
     1833.000       39.590       60.410        0.326       99.674   1.8281E-01   1.7795E-01   2.1308E-01
     1833.000       39.698       60.302        0.327       99.673   1.8409E-01   1.7725E-01   2.1289E-01
     1833.000       39.807       60.193        0.328       99.672   1.8537E-01   1.7655E-01   2.1269E-01
     1833.000       39.916       60.084        0.329       99.671   1.8666E-01   1.7586E-01   2.1249E-01
     1833.000       40.024       59.976        0.330       99.670   1.8795E-01   1.7518E-01   2.1229E-01
     1833.000       40.133       59.867        0.331       99.669   1.8923E-01   1.7450E-01   2.1209E-01
     1833.000       40.241       59.759        0.332       99.668   1.9052E-01   1.7382E-01   2.1188E-01
     1833.000       40.350       59.650        0.333       99.667   1.9181E-01   1.7315E-01   2.1168E-01
     1833.000       40.458       59.542        0.334       99.666   1.9311E-01   1.7249E-01   2.1147E-01
     1833.000       40.566       59.434        0.335       99.665   1.9440E-01   1.7183E-01   2.1126E-01
     1833.000       40.675       59.325        0.336       99.664   1.9569E-01   1.7117E-01   2.1104E-01
     1833.000       40.783       59.217        0.337       99.663   1.9699E-01   1.7052E-01   2.1083E-01
     1833.000       40.891       59.109        0.338       99.662   1.9829E-01   1.6987E-01   2.1061E-01
     1833.000       40.999       59.001        0.339       99.661   1.9959E-01   1.6923E-01   2.1039E-01
     1833.000       41.107       58.893        0.340       99.660   2.0089E-01   1.6859E-01   2.1017E-01
     1833.000       41.214       58.786        0.341       99.659   2.0219E-01   1.6796E-01   2.0995E-01
     1833.000       41.322       58.678        0.342       99.658   2.0349E-01   1.6733E-01   2.0972E-01
     1833.000       41.430       58.570        0.343       99.657   2.0480E-01   1.6671E-01   2.0950E-01
     1833.000       41.538       58.462        0.344       99.656   2.0610E-01   1.6609E-01   2.0927E-01
     1833.000       41.645       58.355        0.345       99.655   2.0741E-01   1.6548E-01   2.0904E-01
     1833.000       41.753       58.247        0.346       99.654   2.0871E-01   1.6486E-01   2.0881E-01
     1833.000       41.860       58.140        0.347       99.653   2.1002E-01   1.6426E-01   2.0857E-01
     1833.000       41.968       58.032        0.348       99.652   2.1133E-01   1.6366E-01   2.0834E-01
     1833.000       42.075       57.925        0.349       99.651   2.1264E-01   1.6306E-01   2.0810E-01
     1833.000       42.182       57.818        0.350       99.650   2.1395E-01   1.6246E-01   2.0786E-01
     1833.000       42.289       57.711        0.351       99.649   2.1527E-01   1.6187E-01   2.0762E-01
     1833.000       42.396       57.604        0.352       99.648   2.1658E-01   1.6129E-01   2.0738E-01
     1833.000       42.503       57.497        0.353       99.647   2.1789E-01   1.6071E-01   2.0713E-01
     1833.000       42.610       57.390        0.354       99.646   2.1921E-01   1.6013E-01   2.0689E-01
     1833.000       42.717       57.283        0.355       99.645   2.2053E-01   1.5955E-01   2.0664E-01
     1833.000       42.824       57.176        0.356       99.644   2.2184E-01   1.5898E-01   2.0639E-01
     1833.000       42.931       57.069        0.357       99.643   2.2316E-01   1.5842E-01   2.0614E-01
     1833.000       43.038       56.962        0.358       99.642   2.2448E-01   1.5785E-01   2.0589E-01
     1833.000       43.144       56.856        0.359       99.641   2.2580E-01   1.5730E-01   2.0563E-01
     1833.000       43.251       56.749        0.360       99.640   2.2712E-01   1.5674E-01   2.0538E-01
     1833.000       43.357       56.643        0.361       99.639   2.2844E-01   1.5619E-01   2.0512E-01
     1833.000       43.464       56.536        0.362       99.638   2.2977E-01   1.5564E-01   2.0486E-01
     1833.000       43.570       56.430        0.363       99.637   2.3109E-01   1.5510E-01   2.0460E-01
     1833.000       43.676       56.324        0.364       99.636   2.3241E-01   1.5455E-01   2.0434E-01
     1833.000       43.783       56.217        0.365       99.635   2.3374E-01   1.5402E-01   2.0408E-01
     1833.000       43.889       56.111        0.366       99.634   2.3506E-01   1.5348E-01   2.0382E-01
     1833.000       43.995       56.005        0.367       99.633   2.3639E-01   1.5295E-01   2.0355E-01
     1833.000       44.101       55.899        0.368       99.632   2.3771E-01   1.5242E-01   2.0329E-01
     1833.000       44.207       55.793        0.369       99.631   2.3904E-01   1.5190E-01   2.0302E-01
     1833.000       44.313       55.687        0.370       99.630   2.4037E-01   1.5138E-01   2.0275E-01
     1833.000       44.419       55.581        0.371       99.629   2.4170E-01   1.5086E-01   2.0248E-01
     1833.000       44.524       55.476        0.372       99.628   2.4303E-01   1.5035E-01   2.0221E-01
     1833.000       44.630       55.370        0.373       99.627   2.4436E-01   1.4984E-01   2.0193E-01
     1833.000       44.736       55.264        0.374       99.626   2.4569E-01   1.4933E-01   2.0166E-01
     1833.000       44.841       55.159        0.375       99.625   2.4702E-01   1.4883E-01   2.0138E-01
     1833.000       44.947       55.053        0.376       99.624   2.4835E-01   1.4832E-01   2.0111E-01
     1833.000       45.052       54.948        0.377       99.623   2.4968E-01   1.4783E-01   2.0083E-01
     1833.000       45.157       54.843        0.378       99.622   2.5102E-01   1.4733E-01   2.0055E-01
     1833.000       45.263       54.737        0.379       99.621   2.5235E-01   1.4684E-01   2.0027E-01
     1833.000       45.368       54.632        0.380       99.620   2.5368E-01   1.4635E-01   1.9999E-01
     1833.000       45.473       54.527        0.381       99.619   2.5502E-01   1.4586E-01   1.9971E-01
     1833.000       45.578       54.422        0.382       99.618   2.5635E-01   1.4538E-01   1.9942E-01
     1833.000       45.683       54.317        0.383       99.617   2.5769E-01   1.4490E-01   1.9914E-01
     1833.000       45.788       54.212        0.384       99.616   2.5902E-01   1.4442E-01   1.9885E-01
     1833.000       45.893       54.107        0.385       99.615   2.6036E-01   1.4394E-01   1.9856E-01
     1833.000       45.998       54.002        0.386       99.614   2.6170E-01   1.4347E-01   1.9828E-01
     1833.000       46.103       53.897        0.387       99.613   2.6303E-01   1.4300E-01   1.9799E-01
     1833.000       46.207       53.793        0.388       99.612   2.6437E-01   1.4254E-01   1.9770E-01
     1833.000       46.312       53.688        0.389       99.611   2.6571E-01   1.4207E-01   1.9741E-01
     1833.000       46.417       53.583        0.390       99.610   2.6705E-01   1.4161E-01   1.9711E-01
     1833.000       46.521       53.479        0.391       99.609   2.6839E-01   1.4115E-01   1.9682E-01
     1833.000       46.626       53.374        0.392       99.608   2.6972E-01   1.4070E-01   1.9653E-01
     1833.000       46.730       53.270        0.393       99.607   2.7106E-01   1.4024E-01   1.9623E-01
     1833.000       46.834       53.166        0.394       99.606   2.7240E-01   1.3979E-01   1.9593E-01
     1833.000       46.939       53.061        0.395       99.605   2.7374E-01   1.3934E-01   1.9564E-01
     1833.000       47.043       52.957        0.396       99.604   2.7508E-01   1.3890E-01   1.9534E-01
     1833.000       47.147       52.853        0.397       99.603   2.7642E-01   1.3845E-01   1.9504E-01
     1833.000       47.251       52.749        0.398       99.602   2.7776E-01   1.3801E-01   1.9474E-01
     1833.000       47.355       52.645        0.399       99.601   2.7910E-01   1.3758E-01   1.9444E-01
     1833.000       47.459       52.541        0.400       99.600   2.8044E-01   1.3714E-01   1.9414E-01
     1833.000       47.563       52.437        0.401       99.599   2.8178E-01   1.3671E-01   1.9384E-01
     1833.000       47.667       52.333        0.402       99.598   2.8313E-01   1.3628E-01   1.9353E-01
     1833.000       47.770       52.230        0.403       99.597   2.8447E-01   1.3585E-01   1.9323E-01
     1833.000       47.874       52.126        0.404       99.596   2.8581E-01   1.3542E-01   1.9292E-01
     1833.000       47.978       52.022        0.405       99.595   2.8715E-01   1.3500E-01   1.9262E-01
     1833.000       48.081       51.919        0.406       99.594   2.8849E-01   1.3457E-01   1.9231E-01
     1833.000       48.185       51.815        0.407       99.593   2.8984E-01   1.3415E-01   1.9200E-01
     1833.000       48.288       51.712        0.408       99.592   2.9118E-01   1.3374E-01   1.9169E-01
     1833.000       48.391       51.609        0.409       99.591   2.9252E-01   1.3332E-01   1.9138E-01
     1833.000       48.495       51.505        0.410       99.590   2.9387E-01   1.3291E-01   1.9107E-01
     1833.000       48.598       51.402        0.411       99.589   2.9521E-01   1.3250E-01   1.9076E-01
     1833.000       48.701       51.299        0.412       99.588   2.9655E-01   1.3209E-01   1.9045E-01
     1833.000       48.804       51.196        0.413       99.587   2.9789E-01   1.3168E-01   1.9014E-01
     1833.000       48.907       51.093        0.414       99.586   2.9924E-01   1.3128E-01   1.8983E-01
     1833.000       49.010       50.990        0.415       99.585   3.0058E-01   1.3088E-01   1.8951E-01
     1833.000       49.113       50.887        0.416       99.584   3.0193E-01   1.3048E-01   1.8920E-01
     1833.000       49.216       50.784        0.417       99.583   3.0327E-01   1.3008E-01   1.8888E-01
     1833.000       49.319       50.681        0.418       99.582   3.0461E-01   1.2968E-01   1.8857E-01
     1833.000       49.421       50.579        0.419       99.581   3.0596E-01   1.2929E-01   1.8825E-01
     1833.000       49.524       50.476        0.420       99.580   3.0730E-01   1.2890E-01   1.8793E-01
     1833.000       49.627       50.373        0.421       99.579   3.0864E-01   1.2851E-01   1.8761E-01
     1833.000       49.729       50.271        0.422       99.578   3.0999E-01   1.2812E-01   1.8730E-01
     1833.000       49.832       50.168        0.423       99.577   3.1133E-01   1.2774E-01   1.8698E-01
     1833.000       49.934       50.066        0.424       99.576   3.1268E-01   1.2735E-01   1.8666E-01
     1833.000       50.036       49.964        0.425       99.575   3.1402E-01   1.2697E-01   1.8634E-01
     1833.000       50.139       49.861        0.426       99.574   3.1536E-01   1.2659E-01   1.8601E-01
     1833.000       50.241       49.759        0.427       99.573   3.1671E-01   1.2621E-01   1.8569E-01
     1833.000       50.343       49.657        0.428       99.572   3.1805E-01   1.2583E-01   1.8537E-01
     1833.000       50.445       49.555        0.429       99.571   3.1940E-01   1.2546E-01   1.8505E-01
     1833.000       50.547       49.453        0.430       99.570   3.2074E-01   1.2509E-01   1.8472E-01
     1833.000       50.649       49.351        0.431       99.569   3.2208E-01   1.2472E-01   1.8440E-01
     1833.000       50.751       49.249        0.432       99.568   3.2343E-01   1.2435E-01   1.8407E-01
     1833.000       50.853       49.147        0.433       99.567   3.2477E-01   1.2398E-01   1.8375E-01
     1833.000       50.955       49.045        0.434       99.566   3.2612E-01   1.2361E-01   1.8342E-01
     1833.000       51.056       48.944        0.435       99.565   3.2746E-01   1.2325E-01   1.8310E-01
     1833.000       51.158       48.842        0.436       99.564   3.2880E-01   1.2289E-01   1.8277E-01
     1833.000       51.259       48.741        0.437       99.563   3.3015E-01   1.2253E-01   1.8244E-01
     1833.000       51.361       48.639        0.438       99.562   3.3149E-01   1.2217E-01   1.8211E-01
     1833.000       51.462       48.538        0.439       99.561   3.3283E-01   1.2181E-01   1.8178E-01
     1833.000       51.564       48.436        0.440       99.560   3.3418E-01   1.2146E-01   1.8145E-01
     1833.000       51.665       48.335        0.441       99.559   3.3552E-01   1.2110E-01   1.8112E-01
     1833.000       51.766       48.234        0.442       99.558   3.3686E-01   1.2075E-01   1.8079E-01
     1833.000       51.868       48.132        0.443       99.557   3.3821E-01   1.2040E-01   1.8046E-01
     1833.000       51.969       48.031        0.444       99.556   3.3955E-01   1.2005E-01   1.8013E-01
     1833.000       52.070       47.930        0.445       99.555   3.4089E-01   1.1971E-01   1.7980E-01
     1833.000       52.171       47.829        0.446       99.554   3.4224E-01   1.1936E-01   1.7947E-01
     1833.000       52.272       47.728        0.447       99.553   3.4358E-01   1.1902E-01   1.7913E-01
     1833.000       52.373       47.627        0.448       99.552   3.4492E-01   1.1867E-01   1.7880E-01
     1833.000       52.474       47.526        0.449       99.551   3.4626E-01   1.1833E-01   1.7847E-01
     1833.000       52.574       47.426        0.450       99.550   3.4760E-01   1.1799E-01   1.7813E-01
     1833.000       52.675       47.325        0.451       99.549   3.4895E-01   1.1766E-01   1.7780E-01
     1833.000       52.776       47.224        0.452       99.548   3.5029E-01   1.1732E-01   1.7746E-01
     1833.000       52.876       47.124        0.453       99.547   3.5163E-01   1.1699E-01   1.7713E-01
     1833.000       52.977       47.023        0.454       99.546   3.5297E-01   1.1665E-01   1.7679E-01
     1833.000       53.077       46.923        0.455       99.545   3.5431E-01   1.1632E-01   1.7646E-01
     1833.000       53.178       46.822        0.456       99.544   3.5565E-01   1.1599E-01   1.7612E-01
     1833.000       53.278       46.722        0.457       99.543   3.5699E-01   1.1566E-01   1.7578E-01
     1833.000       53.378       46.622        0.458       99.542   3.5833E-01   1.1533E-01   1.7544E-01
     1833.000       53.479       46.521        0.459       99.541   3.5967E-01   1.1501E-01   1.7511E-01
     1833.000       53.579       46.421        0.460       99.540   3.6101E-01   1.1468E-01   1.7477E-01
     1833.000       53.679       46.321        0.461       99.539   3.6235E-01   1.1436E-01   1.7443E-01
     1833.000       53.779       46.221        0.462       99.538   3.6369E-01   1.1404E-01   1.7409E-01
     1833.000       53.879       46.121        0.463       99.537   3.6503E-01   1.1372E-01   1.7375E-01
     1833.000       53.979       46.021        0.464       99.536   3.6637E-01   1.1340E-01   1.7341E-01
     1833.000       54.079       45.921        0.465       99.535   3.6771E-01   1.1308E-01   1.7307E-01
     1833.000       54.178       45.822        0.466       99.534   3.6905E-01   1.1276E-01   1.7273E-01
     1833.000       54.278       45.722        0.467       99.533   3.7039E-01   1.1245E-01   1.7239E-01
     1833.000       54.378       45.622        0.468       99.532   3.7173E-01   1.1213E-01   1.7205E-01
     1833.000       54.477       45.523        0.469       99.531   3.7306E-01   1.1182E-01   1.7170E-01
     1833.000       54.577       45.423        0.470       99.530   3.7440E-01   1.1151E-01   1.7136E-01
     1833.000       54.676       45.324        0.471       99.529   3.7574E-01   1.1120E-01   1.7102E-01
     1833.000       54.776       45.224        0.472       99.528   3.7707E-01   1.1089E-01   1.7068E-01
     1833.000       54.875       45.125        0.473       99.527   3.7841E-01   1.1059E-01   1.7033E-01
     1833.000       54.975       45.025        0.474       99.526   3.7975E-01   1.1028E-01   1.6999E-01
     1833.000       55.074       44.926        0.475       99.525   3.8108E-01   1.0997E-01   1.6965E-01
     1833.000       55.173       44.827        0.476       99.524   3.8242E-01   1.0967E-01   1.6930E-01
     1833.000       55.272       44.728        0.477       99.523   3.8376E-01   1.0937E-01   1.6896E-01
     1833.000       55.371       44.629        0.478       99.522   3.8509E-01   1.0907E-01   1.6861E-01
     1833.000       55.470       44.530        0.479       99.521   3.8643E-01   1.0877E-01   1.6827E-01
     1833.000       55.569       44.431        0.480       99.520   3.8776E-01   1.0847E-01   1.6792E-01
     1833.000       55.668       44.332        0.481       99.519   3.8910E-01   1.0817E-01   1.6758E-01
     1833.000       55.767       44.233        0.482       99.518   3.9043E-01   1.0787E-01   1.6723E-01
     1833.000       55.866       44.134        0.483       99.517   3.9177E-01   1.0758E-01   1.6688E-01
     1833.000       55.964       44.036        0.484       99.516   3.9310E-01   1.0728E-01   1.6654E-01
     1833.000       56.063       43.937        0.485       99.515   3.9443E-01   1.0699E-01   1.6619E-01
     1833.000       56.162       43.838        0.486       99.514   3.9577E-01   1.0670E-01   1.6584E-01
     1833.000       56.260       43.740        0.487       99.513   3.9710E-01   1.0641E-01   1.6550E-01
     1833.000       56.359       43.641        0.488       99.512   3.9843E-01   1.0612E-01   1.6515E-01
     1833.000       56.457       43.543        0.489       99.511   3.9976E-01   1.0583E-01   1.6480E-01
     1833.000       56.555       43.445        0.490       99.510   4.0110E-01   1.0554E-01   1.6445E-01
     1833.000       56.654       43.346        0.491       99.509   4.0243E-01   1.0526E-01   1.6410E-01
     1833.000       56.752       43.248        0.492       99.508   4.0375E-01   1.0497E-01   1.6376E-01
     1833.000       56.850       43.150        0.493       99.507   4.0508E-01   1.0469E-01   1.6341E-01
     1833.000       56.948       43.052        0.494       99.506   4.0641E-01   1.0440E-01   1.6306E-01
     1833.000       57.046       42.954        0.495       99.505   4.0774E-01   1.0412E-01   1.6271E-01
     1833.000       57.144       42.856        0.496       99.504   4.0907E-01   1.0384E-01   1.6236E-01
     1833.000       57.242       42.758        0.497       99.503   4.1040E-01   1.0356E-01   1.6201E-01
     1833.000       57.340       42.660        0.498       99.502   4.1173E-01   1.0328E-01   1.6166E-01
     1833.000       57.438       42.562        0.499       99.501   4.1306E-01   1.0300E-01   1.6131E-01
     1833.000       57.536       42.464        0.500       99.500   4.1439E-01   1.0273E-01   1.6096E-01
     1833.000       57.633       42.367        0.501       99.499   4.1572E-01   1.0245E-01   1.6061E-01
     1833.000       57.731       42.269        0.502       99.498   4.1704E-01   1.0218E-01   1.6026E-01
     1833.000       57.828       42.172        0.503       99.497   4.1837E-01   1.0190E-01   1.5991E-01
     1833.000       57.926       42.074        0.504       99.496   4.1970E-01   1.0163E-01   1.5956E-01
     1833.000       58.023       41.977        0.505       99.495   4.2102E-01   1.0136E-01   1.5921E-01
     1833.000       58.121       41.879        0.506       99.494   4.2235E-01   1.0109E-01   1.5885E-01
     1833.000       58.218       41.782        0.507       99.493   4.2367E-01   1.0082E-01   1.5850E-01
     1833.000       58.315       41.685        0.508       99.492   4.2500E-01   1.0055E-01   1.5815E-01
     1833.000       58.413       41.587        0.509       99.491   4.2633E-01   1.0028E-01   1.5780E-01
     1833.000       58.510       41.490        0.510       99.490   4.2765E-01   1.0001E-01   1.5745E-01
     1833.000       58.607       41.393        0.511       99.489   4.2897E-01   9.9745E-02   1.5709E-01
     1833.000       58.704       41.296        0.512       99.488   4.3030E-01   9.9480E-02   1.5674E-01
     1833.000       58.801       41.199        0.513       99.487   4.3161E-01   9.9217E-02   1.5639E-01
     1833.000       58.898       41.102        0.514       99.486   4.3294E-01   9.8953E-02   1.5604E-01
     1833.000       58.995       41.005        0.515       99.485   4.3426E-01   9.8690E-02   1.5568E-01
     1833.000       59.092       40.908        0.516       99.484   4.3558E-01   9.8429E-02   1.5533E-01
     1833.000       59.188       40.812        0.517       99.483   4.3690E-01   9.8168E-02   1.5498E-01
     1833.000       59.285       40.715        0.518       99.482   4.3822E-01   9.7908E-02   1.5462E-01
     1833.000       59.382       40.618        0.519       99.481   4.3954E-01   9.7649E-02   1.5427E-01
     1833.000       59.478       40.522        0.520       99.480   4.4086E-01   9.7391E-02   1.5391E-01
     1833.000       59.575       40.425        0.521       99.479   4.4218E-01   9.7133E-02   1.5356E-01
     1833.000       59.671       40.329        0.522       99.478   4.4350E-01   9.6877E-02   1.5321E-01
     1833.000       59.768       40.232        0.523       99.477   4.4482E-01   9.6621E-02   1.5285E-01
     1833.000       59.864       40.136        0.524       99.476   4.4614E-01   9.6367E-02   1.5250E-01
     1833.000       59.960       40.040        0.525       99.475   4.4746E-01   9.6113E-02   1.5214E-01
     1833.000       60.057       39.943        0.526       99.474   4.4877E-01   9.5860E-02   1.5179E-01
     1833.000       60.153       39.847        0.527       99.473   4.5009E-01   9.5607E-02   1.5143E-01
     1833.000       60.249       39.751        0.528       99.472   4.5141E-01   9.5356E-02   1.5108E-01
     1833.000       60.345       39.655        0.529       99.471   4.5272E-01   9.5105E-02   1.5072E-01
     1833.000       60.441       39.559        0.530       99.470   4.5404E-01   9.4855E-02   1.5037E-01
     1833.000       60.537       39.463        0.531       99.469   4.5535E-01   9.4606E-02   1.5001E-01
     1833.000       60.633       39.367        0.532       99.468   4.5667E-01   9.4358E-02   1.4966E-01
     1833.000       60.729       39.271        0.533       99.467   4.5798E-01   9.4110E-02   1.4930E-01
     1833.000       60.825       39.175        0.534       99.466   4.5930E-01   9.3864E-02   1.4895E-01
     1833.000       60.920       39.080        0.535       99.465   4.6060E-01   9.3619E-02   1.4859E-01
     1833.000       61.016       38.984        0.536       99.464   4.6192E-01   9.3373E-02   1.4823E-01
     1833.000       61.112       38.888        0.537       99.463   4.6323E-01   9.3129E-02   1.4788E-01
     1833.000       61.207       38.793        0.538       99.462   4.6454E-01   9.2885E-02   1.4752E-01
     1833.000       61.303       38.697        0.539       99.461   4.6585E-01   9.2643E-02   1.4717E-01
     1833.000       61.398       38.602        0.540       99.460   4.6716E-01   9.2401E-02   1.4681E-01
     1833.000       61.493       38.507        0.541       99.459   4.6847E-01   9.2159E-02   1.4645E-01
     1833.000       61.589       38.411        0.542       99.458   4.6978E-01   9.1919E-02   1.4610E-01
     1833.000       61.684       38.316        0.543       99.457   4.7109E-01   9.1679E-02   1.4574E-01
     1833.000       61.779       38.221        0.544       99.456   4.7240E-01   9.1440E-02   1.4539E-01
     1833.000       61.874       38.126        0.545       99.455   4.7371E-01   9.1201E-02   1.4503E-01
     1833.000       61.970       38.030        0.546       99.454   4.7502E-01   9.0964E-02   1.4467E-01
     1833.000       62.065       37.935        0.547       99.453   4.7632E-01   9.0727E-02   1.4432E-01
     1833.000       62.160       37.840        0.548       99.452   4.7763E-01   9.0490E-02   1.4396E-01
     1833.000       62.255       37.745        0.549       99.451   4.7894E-01   9.0255E-02   1.4360E-01
     1833.000       62.349       37.651        0.550       99.450   4.8024E-01   9.0020E-02   1.4324E-01
     1833.000       62.444       37.556        0.551       99.449   4.8155E-01   8.9786E-02   1.4289E-01
     1833.000       62.539       37.461        0.552       99.448   4.8286E-01   8.9552E-02   1.4253E-01
     1833.000       62.634       37.366        0.553       99.447   4.8416E-01   8.9319E-02   1.4217E-01
     1833.000       62.728       37.272        0.554       99.446   4.8546E-01   8.9087E-02   1.4182E-01
     1833.000       62.823       37.177        0.555       99.445   4.8677E-01   8.8855E-02   1.4146E-01
     1833.000       62.917       37.083        0.556       99.444   4.8807E-01   8.8624E-02   1.4110E-01
     1833.000       63.012       36.988        0.557       99.443   4.8937E-01   8.8394E-02   1.4074E-01
     1833.000       63.106       36.894        0.558       99.442   4.9067E-01   8.8165E-02   1.4039E-01
     1833.000       63.201       36.799        0.559       99.441   4.9198E-01   8.7936E-02   1.4003E-01
     1833.000       63.295       36.705        0.560       99.440   4.9327E-01   8.7709E-02   1.3967E-01
     1833.000       63.389       36.611        0.561       99.439   4.9457E-01   8.7481E-02   1.3931E-01
     1833.000       63.484       36.516        0.562       99.438   4.9587E-01   8.7254E-02   1.3896E-01
     1833.000       63.578       36.422        0.563       99.437   4.9717E-01   8.7028E-02   1.3860E-01
     1833.000       63.672       36.328        0.564       99.436   4.9847E-01   8.6802E-02   1.3824E-01
     1833.000       63.766       36.234        0.565       99.435   4.9977E-01   8.6577E-02   1.3788E-01
     1833.000       63.860       36.140        0.566       99.434   5.0106E-01   8.6353E-02   1.3753E-01
     1833.000       63.954       36.046        0.567       99.433   5.0236E-01   8.6129E-02   1.3717E-01
     1833.000       64.048       35.952        0.568       99.432   5.0366E-01   8.5906E-02   1.3681E-01
     1833.000       64.141       35.859        0.569       99.431   5.0495E-01   8.5683E-02   1.3645E-01
     1833.000       64.235       35.765        0.570       99.430   5.0625E-01   8.5461E-02   1.3609E-01
     1833.000       64.329       35.671        0.571       99.429   5.0755E-01   8.5240E-02   1.3574E-01
     1833.000       64.423       35.577        0.572       99.428   5.0884E-01   8.5019E-02   1.3538E-01
     1833.000       64.516       35.484        0.573       99.427   5.1013E-01   8.4799E-02   1.3502E-01
     1833.000       64.610       35.390        0.574       99.426   5.1143E-01   8.4579E-02   1.3466E-01
     1833.000       64.703       35.297        0.575       99.425   5.1272E-01   8.4360E-02   1.3431E-01
     1833.000       64.797       35.203        0.576       99.424   5.1402E-01   8.4141E-02   1.3395E-01
     1833.000       64.890       35.110        0.577       99.423   5.1531E-01   8.3923E-02   1.3359E-01
     1833.000       64.983       35.017        0.578       99.422   5.1660E-01   8.3706E-02   1.3323E-01
     1833.000       65.077       34.923        0.579       99.421   5.1789E-01   8.3489E-02   1.3287E-01
     1833.000       65.170       34.830        0.580       99.420   5.1918E-01   8.3273E-02   1.3252E-01
     1833.000       65.263       34.737        0.581       99.419   5.2047E-01   8.3057E-02   1.3216E-01
     1833.000       65.356       34.644        0.582       99.418   5.2176E-01   8.2842E-02   1.3180E-01
     1833.000       65.449       34.551        0.583       99.417   5.2305E-01   8.2628E-02   1.3144E-01
     1833.000       65.542       34.458        0.584       99.416   5.2433E-01   8.2414E-02   1.3108E-01
     1833.000       65.635       34.365        0.585       99.415   5.2562E-01   8.2200E-02   1.3073E-01
     1833.000       65.728       34.272        0.586       99.414   5.2690E-01   8.1988E-02   1.3037E-01
     1833.000       65.821       34.179        0.587       99.413   5.2819E-01   8.1776E-02   1.3001E-01
     1833.000       65.913       34.087        0.588       99.412   5.2947E-01   8.1564E-02   1.2965E-01
     1833.000       66.006       33.994        0.589       99.411   5.3076E-01   8.1353E-02   1.2929E-01
     1833.000       66.099       33.901        0.590       99.410   5.3204E-01   8.1142E-02   1.2894E-01
     1833.000       66.191       33.809        0.591       99.409   5.3333E-01   8.0931E-02   1.2858E-01
     1833.000       66.284       33.716        0.592       99.408   5.3461E-01   8.0722E-02   1.2822E-01
     1833.000       66.376       33.624        0.593       99.407   5.3589E-01   8.0512E-02   1.2786E-01
     1833.000       66.469       33.531        0.594       99.406   5.3718E-01   8.0304E-02   1.2751E-01
     1833.000       66.561       33.439        0.595       99.405   5.3846E-01   8.0095E-02   1.2715E-01
     1833.000       66.654       33.346        0.596       99.404   5.3974E-01   7.9888E-02   1.2679E-01
     1833.000       66.746       33.254        0.597       99.403   5.4102E-01   7.9680E-02   1.2643E-01
     1833.000       66.838       33.162        0.598       99.402   5.4230E-01   7.9473E-02   1.2607E-01
     1833.000       66.930       33.070        0.599       99.401   5.4358E-01   7.9267E-02   1.2572E-01
     1833.000       67.022       32.978        0.600       99.400   5.4486E-01   7.9061E-02   1.2536E-01
     1833.000       67.115       32.885        0.601       99.399   5.4614E-01   7.8856E-02   1.2500E-01
     1833.000       67.207       32.793        0.602       99.398   5.4742E-01   7.8651E-02   1.2464E-01
     1833.000       67.298       32.702        0.603       99.397   5.4870E-01   7.8446E-02   1.2428E-01
     1833.000       67.390       32.610        0.604       99.396   5.4997E-01   7.8243E-02   1.2393E-01
     1833.000       67.482       32.518        0.605       99.395   5.5125E-01   7.8039E-02   1.2357E-01
     1833.000       67.574       32.426        0.606       99.394   5.5252E-01   7.7836E-02   1.2321E-01
     1833.000       67.666       32.334        0.607       99.393   5.5380E-01   7.7634E-02   1.2285E-01
     1833.000       67.757       32.243        0.608       99.392   5.5507E-01   7.7432E-02   1.2250E-01
     1833.000       67.849       32.151        0.609       99.391   5.5635E-01   7.7230E-02   1.2214E-01
     1833.000       67.941       32.059        0.610       99.390   5.5762E-01   7.7029E-02   1.2178E-01
     1833.000       68.032       31.968        0.611       99.389   5.5889E-01   7.6828E-02   1.2143E-01
     1833.000       68.124       31.876        0.612       99.388   5.6017E-01   7.6628E-02   1.2107E-01
     1833.000       68.215       31.785        0.613       99.387   5.6144E-01   7.6428E-02   1.2071E-01
     1833.000       68.306       31.694        0.614       99.386   5.6271E-01   7.6229E-02   1.2035E-01
     1833.000       68.398       31.602        0.615       99.385   5.6397E-01   7.6030E-02   1.2000E-01
     1833.000       68.489       31.511        0.616       99.384   5.6524E-01   7.5832E-02   1.1964E-01
     1833.000       68.580       31.420        0.617       99.383   5.6651E-01   7.5634E-02   1.1928E-01
     1833.000       68.671       31.329        0.618       99.382   5.6778E-01   7.5436E-02   1.1893E-01
     1833.000       68.763       31.237        0.619       99.381   5.6905E-01   7.5239E-02   1.1857E-01
     1833.000       68.854       31.146        0.620       99.380   5.7032E-01   7.5042E-02   1.1821E-01
     1833.000       68.945       31.055        0.621       99.379   5.7158E-01   7.4845E-02   1.1786E-01
     1833.000       69.036       30.964        0.622       99.378   5.7285E-01   7.4649E-02   1.1750E-01
     1833.000       69.126       30.874        0.623       99.377   5.7411E-01   7.4454E-02   1.1714E-01
     1833.000       69.217       30.783        0.624       99.376   5.7538E-01   7.4259E-02   1.1679E-01
     1833.000       69.308       30.692        0.625       99.375   5.7664E-01   7.4064E-02   1.1643E-01
     1833.000       69.399       30.601        0.626       99.374   5.7791E-01   7.3870E-02   1.1607E-01
     1833.000       69.489       30.511        0.627       99.373   5.7917E-01   7.3676E-02   1.1572E-01
     1833.000       69.580       30.420        0.628       99.372   5.8043E-01   7.3482E-02   1.1536E-01
     1833.000       69.671       30.329        0.629       99.371   5.8170E-01   7.3288E-02   1.1500E-01
     1833.000       69.761       30.239        0.630       99.370   5.8296E-01   7.3096E-02   1.1465E-01
     1833.000       69.852       30.148        0.631       99.369   5.8422E-01   7.2903E-02   1.1429E-01
     1833.000       69.942       30.058        0.632       99.368   5.8548E-01   7.2711E-02   1.1393E-01
     1833.000       70.032       29.968        0.633       99.367   5.8674E-01   7.2519E-02   1.1358E-01
     1833.000       70.123       29.877        0.634       99.366   5.8800E-01   7.2328E-02   1.1322E-01
     1833.000       70.213       29.787        0.635       99.365   5.8926E-01   7.2137E-02   1.1287E-01
     1833.000       70.303       29.697        0.636       99.364   5.9052E-01   7.1947E-02   1.1251E-01
     1833.000       70.393       29.607        0.637       99.363   5.9178E-01   7.1756E-02   1.1216E-01
     1833.000       70.483       29.517        0.638       99.362   5.9303E-01   7.1567E-02   1.1180E-01
     1833.000       70.574       29.426        0.639       99.361   5.9429E-01   7.1377E-02   1.1144E-01
     1833.000       70.664       29.336        0.640       99.360   5.9554E-01   7.1188E-02   1.1109E-01
     1833.000       70.753       29.247        0.641       99.359   5.9680E-01   7.0999E-02   1.1073E-01
     1833.000       70.843       29.157        0.642       99.358   5.9805E-01   7.0811E-02   1.1038E-01
     1833.000       70.933       29.067        0.643       99.357   5.9931E-01   7.0623E-02   1.1002E-01
     1833.000       71.023       28.977        0.644       99.356   6.0056E-01   7.0435E-02   1.0967E-01
     1833.000       71.113       28.887        0.645       99.355   6.0181E-01   7.0249E-02   1.0931E-01
     1833.000       71.202       28.798        0.646       99.354   6.0306E-01   7.0062E-02   1.0896E-01
     1833.000       71.292       28.708        0.647       99.353   6.0431E-01   6.9875E-02   1.0860E-01
     1833.000       71.382       28.618        0.648       99.352   6.0556E-01   6.9689E-02   1.0825E-01
     1833.000       71.471       28.529        0.649       99.351   6.0681E-01   6.9503E-02   1.0789E-01
     1833.000       71.561       28.439        0.650       99.350   6.0806E-01   6.9317E-02   1.0754E-01
     1833.000       71.650       28.350        0.651       99.349   6.0931E-01   6.9132E-02   1.0718E-01
     1833.000       71.740       28.260        0.652       99.348   6.1056E-01   6.8947E-02   1.0683E-01
     1833.000       71.829       28.171        0.653       99.347   6.1180E-01   6.8762E-02   1.0648E-01
     1833.000       71.918       28.082        0.654       99.346   6.1305E-01   6.8578E-02   1.0612E-01
     1833.000       72.007       27.993        0.655       99.345   6.1430E-01   6.8394E-02   1.0577E-01
     1833.000       72.097       27.903        0.656       99.344   6.1554E-01   6.8210E-02   1.0541E-01
     1833.000       72.186       27.814        0.657       99.343   6.1679E-01   6.8027E-02   1.0506E-01
     1833.000       72.275       27.725        0.658       99.342   6.1803E-01   6.7844E-02   1.0471E-01
     1833.000       72.364       27.636        0.659       99.341   6.1928E-01   6.7660E-02   1.0435E-01
     1833.000       72.453       27.547        0.660       99.340   6.2053E-01   6.7478E-02   1.0400E-01
     1833.000       72.542       27.458        0.661       99.339   6.2177E-01   6.7296E-02   1.0364E-01
     1833.000       72.630       27.370        0.662       99.338   6.2301E-01   6.7114E-02   1.0329E-01
     1833.000       72.719       27.281        0.663       99.337   6.2425E-01   6.6932E-02   1.0294E-01
     1833.000       72.808       27.192        0.664       99.336   6.2549E-01   6.6751E-02   1.0258E-01
     1833.000       72.897       27.103        0.665       99.335   6.2673E-01   6.6570E-02   1.0223E-01
     1833.000       72.985       27.015        0.666       99.334   6.2797E-01   6.6390E-02   1.0188E-01
     1833.000       73.074       26.926        0.667       99.333   6.2921E-01   6.6209E-02   1.0153E-01
     1833.000       73.163       26.837        0.668       99.332   6.3045E-01   6.6029E-02   1.0117E-01
     1833.000       73.251       26.749        0.669       99.331   6.3169E-01   6.5849E-02   1.0082E-01
     1833.000       73.340       26.660        0.670       99.330   6.3293E-01   6.5670E-02   1.0047E-01
     1833.000       73.428       26.572        0.671       99.329   6.3416E-01   6.5491E-02   1.0012E-01
     1833.000       73.516       26.484        0.672       99.328   6.3540E-01   6.5312E-02   9.9763E-02
     1833.000       73.605       26.395        0.673       99.327   6.3663E-01   6.5133E-02   9.9411E-02
     1833.000       73.693       26.307        0.674       99.326   6.3787E-01   6.4955E-02   9.9058E-02
     1833.000       73.781       26.219        0.675       99.325   6.3910E-01   6.4777E-02   9.8707E-02
     1833.000       73.869       26.131        0.676       99.324   6.4034E-01   6.4599E-02   9.8355E-02
     1833.000       73.957       26.043        0.677       99.323   6.4157E-01   6.4421E-02   9.8003E-02
     1833.000       74.045       25.955        0.678       99.322   6.4279E-01   6.4244E-02   9.7652E-02
     1833.000       74.133       25.867        0.679       99.321   6.4403E-01   6.4067E-02   9.7300E-02
     1833.000       74.221       25.779        0.680       99.320   6.4526E-01   6.3890E-02   9.6949E-02
     1833.000       74.309       25.691        0.681       99.319   6.4649E-01   6.3714E-02   9.6598E-02
     1833.000       74.397       25.603        0.682       99.318   6.4772E-01   6.3538E-02   9.6247E-02
     1833.000       74.485       25.515        0.683       99.317   6.4895E-01   6.3361E-02   9.5896E-02
     1833.000       74.573       25.427        0.684       99.316   6.5017E-01   6.3186E-02   9.5545E-02
     1833.000       74.660       25.340        0.685       99.315   6.5140E-01   6.3010E-02   9.5194E-02
     1833.000       74.748       25.252        0.686       99.314   6.5263E-01   6.2835E-02   9.4843E-02
     1833.000       74.836       25.164        0.687       99.313   6.5386E-01   6.2660E-02   9.4493E-02
     1833.000       74.923       25.077        0.688       99.312   6.5508E-01   6.2485E-02   9.4143E-02
     1833.000       75.011       24.989        0.689       99.311   6.5631E-01   6.2310E-02   9.3792E-02
     1833.000       75.098       24.902        0.690       99.310   6.5754E-01   6.2136E-02   9.3442E-02
     1833.000       75.186       24.814        0.691       99.309   6.5876E-01   6.1961E-02   9.3092E-02
     1833.000       75.273       24.727        0.692       99.308   6.5998E-01   6.1788E-02   9.2742E-02
     1833.000       75.360       24.640        0.693       99.307   6.6121E-01   6.1614E-02   9.2392E-02
     1833.000       75.447       24.553        0.694       99.306   6.6243E-01   6.1441E-02   9.2043E-02
     1833.000       75.535       24.465        0.695       99.305   6.6365E-01   6.1267E-02   9.1693E-02
     1833.000       75.622       24.378        0.696       99.304   6.6487E-01   6.1094E-02   9.1344E-02
     1833.000       75.709       24.291        0.697       99.303   6.6609E-01   6.0922E-02   9.0995E-02
     1833.000       75.796       24.204        0.698       99.302   6.6731E-01   6.0749E-02   9.0646E-02
     1833.000       75.883       24.117        0.699       99.301   6.6853E-01   6.0577E-02   9.0297E-02
     1833.000       75.970       24.030        0.700       99.300   6.6975E-01   6.0405E-02   8.9948E-02
     1833.000       76.057       23.943        0.701       99.299   6.7097E-01   6.0233E-02   8.9600E-02
     1833.000       76.144       23.856        0.702       99.298   6.7218E-01   6.0061E-02   8.9251E-02
     1833.000       76.231       23.769        0.703       99.297   6.7340E-01   5.9890E-02   8.8903E-02
     1833.000       76.317       23.683        0.704       99.296   6.7462E-01   5.9718E-02   8.8555E-02
     1833.000       76.404       23.596        0.705       99.295   6.7583E-01   5.9547E-02   8.8207E-02
     1833.000       76.491       23.509        0.706       99.294   6.7705E-01   5.9376E-02   8.7859E-02
     1833.000       76.577       23.423        0.707       99.293   6.7826E-01   5.9206E-02   8.7511E-02
     1833.000       76.664       23.336        0.708       99.292   6.7947E-01   5.9035E-02   8.7164E-02
     1833.000       76.750       23.250        0.709       99.291   6.8069E-01   5.8865E-02   8.6816E-02
     1833.000       76.837       23.163        0.710       99.290   6.8190E-01   5.8695E-02   8.6469E-02
     1833.000       76.923       23.077        0.711       99.289   6.8311E-01   5.8525E-02   8.6122E-02
     1833.000       77.010       22.990        0.712       99.288   6.8432E-01   5.8355E-02   8.5775E-02
     1833.000       77.096       22.904        0.713       99.287   6.8552E-01   5.8186E-02   8.5428E-02
     1833.000       77.182       22.818        0.714       99.286   6.8673E-01   5.8017E-02   8.5082E-02
     1833.000       77.268       22.732        0.715       99.285   6.8794E-01   5.7848E-02   8.4735E-02
     1833.000       77.355       22.645        0.716       99.284   6.8915E-01   5.7679E-02   8.4389E-02
     1833.000       77.441       22.559        0.717       99.283   6.9036E-01   5.7510E-02   8.4043E-02
     1833.000       77.527       22.473        0.718       99.282   6.9156E-01   5.7341E-02   8.3697E-02
     1833.000       77.613       22.387        0.719       99.281   6.9277E-01   5.7173E-02   8.3351E-02
     1833.000       77.699       22.301        0.720       99.280   6.9397E-01   5.7005E-02   8.3005E-02
     1833.000       77.785       22.215        0.721       99.279   6.9518E-01   5.6837E-02   8.2659E-02
     1833.000       77.871       22.129        0.722       99.278   6.9638E-01   5.6669E-02   8.2314E-02
     1833.000       77.956       22.044        0.723       99.277   6.9759E-01   5.6500E-02   8.1968E-02
     1833.000       78.042       21.958        0.724       99.276   6.9880E-01   5.6333E-02   8.1623E-02
     1833.000       78.128       21.872        0.725       99.275   7.0000E-01   5.6165E-02   8.1278E-02
     1833.000       78.214       21.786        0.726       99.274   7.0120E-01   5.5998E-02   8.0933E-02
     1833.000       78.299       21.701        0.727       99.273   7.0240E-01   5.5831E-02   8.0589E-02
     1833.000       78.385       21.615        0.728       99.272   7.0360E-01   5.5664E-02   8.0244E-02
     1833.000       78.470       21.530        0.729       99.271   7.0480E-01   5.5497E-02   7.9900E-02
     1833.000       78.556       21.444        0.730       99.270   7.0600E-01   5.5330E-02   7.9556E-02
     1833.000       78.641       21.359        0.731       99.269   7.0720E-01   5.5164E-02   7.9212E-02
     1833.000       78.727       21.273        0.732       99.268   7.0840E-01   5.4997E-02   7.8868E-02
     1833.000       78.812       21.188        0.733       99.267   7.0959E-01   5.4831E-02   7.8524E-02
     1833.000       78.897       21.103        0.734       99.266   7.1079E-01   5.4665E-02   7.8181E-02
     1833.000       78.983       21.017        0.735       99.265   7.1199E-01   5.4499E-02   7.7838E-02
     1833.000       79.068       20.932        0.736       99.264   7.1318E-01   5.4333E-02   7.7495E-02
     1833.000       79.153       20.847        0.737       99.263   7.1438E-01   5.4168E-02   7.7152E-02
     1833.000       79.238       20.762        0.738       99.262   7.1557E-01   5.4002E-02   7.6809E-02
     1833.000       79.323       20.677        0.739       99.261   7.1676E-01   5.3837E-02   7.6466E-02
     1833.000       79.408       20.592        0.740       99.260   7.1796E-01   5.3671E-02   7.6124E-02
     1833.000       79.493       20.507        0.741       99.259   7.1915E-01   5.3506E-02   7.5782E-02
     1833.000       79.578       20.422        0.742       99.258   7.2034E-01   5.3341E-02   7.5440E-02
     1833.000       79.663       20.337        0.743       99.257   7.2153E-01   5.3176E-02   7.5098E-02
     1833.000       79.748       20.252        0.744       99.256   7.2272E-01   5.3011E-02   7.4756E-02
     1833.000       79.832       20.168        0.745       99.255   7.2391E-01   5.2847E-02   7.4415E-02
     1833.000       79.917       20.083        0.746       99.254   7.2510E-01   5.2682E-02   7.4073E-02
     1833.000       80.002       19.998        0.747       99.253   7.2628E-01   5.2518E-02   7.3732E-02
     1833.000       80.086       19.914        0.748       99.252   7.2747E-01   5.2353E-02   7.3391E-02
     1833.000       80.171       19.829        0.749       99.251   7.2865E-01   5.2189E-02   7.3051E-02
     1833.000       80.256       19.744        0.750       99.250   7.2984E-01   5.2025E-02   7.2710E-02
     1833.000       80.340       19.660        0.751       99.249   7.3102E-01   5.1861E-02   7.2370E-02
     1833.000       80.425       19.575        0.752       99.248   7.3221E-01   5.1697E-02   7.2030E-02
     1833.000       80.509       19.491        0.753       99.247   7.3339E-01   5.1534E-02   7.1689E-02
     1833.000       80.593       19.407        0.754       99.246   7.3457E-01   5.1370E-02   7.1350E-02
     1833.000       80.678       19.322        0.755       99.245   7.3576E-01   5.1206E-02   7.1010E-02
     1833.000       80.762       19.238        0.756       99.244   7.3694E-01   5.1043E-02   7.0670E-02
     1833.000       80.846       19.154        0.757       99.243   7.3812E-01   5.0879E-02   7.0331E-02
     1833.000       80.930       19.070        0.758       99.242   7.3931E-01   5.0715E-02   6.9992E-02
     1833.000       81.014       18.986        0.759       99.241   7.4049E-01   5.0552E-02   6.9653E-02
     1833.000       81.098       18.902        0.760       99.240   7.4167E-01   5.0389E-02   6.9314E-02
     1833.000       81.182       18.818        0.761       99.239   7.4285E-01   5.0226E-02   6.8975E-02
     1833.000       81.266       18.734        0.762       99.238   7.4402E-01   5.0063E-02   6.8637E-02
     1833.000       81.350       18.650        0.763       99.237   7.4520E-01   4.9900E-02   6.8299E-02
     1833.000       81.434       18.566        0.764       99.236   7.4638E-01   4.9737E-02   6.7961E-02
     1833.000       81.518       18.482        0.765       99.235   7.4755E-01   4.9574E-02   6.7623E-02
     1833.000       81.602       18.398        0.766       99.234   7.4873E-01   4.9412E-02   6.7286E-02
     1833.000       81.685       18.315        0.767       99.233   7.4990E-01   4.9249E-02   6.6948E-02
     1833.000       81.769       18.231        0.768       99.232   7.5108E-01   4.9086E-02   6.6611E-02
     1833.000       81.853       18.147        0.769       99.231   7.5225E-01   4.8924E-02   6.6274E-02
     1833.000       81.936       18.064        0.770       99.230   7.5343E-01   4.8761E-02   6.5937E-02
     1833.000       82.020       17.980        0.771       99.229   7.5460E-01   4.8599E-02   6.5601E-02
     1833.000       82.103       17.897        0.772       99.228   7.5577E-01   4.8437E-02   6.5264E-02
     1833.000       82.187       17.813        0.773       99.227   7.5694E-01   4.8274E-02   6.4928E-02
     1833.000       82.270       17.730        0.774       99.226   7.5811E-01   4.8112E-02   6.4592E-02
     1833.000       82.354       17.646        0.775       99.225   7.5928E-01   4.7950E-02   6.4257E-02
     1833.000       82.437       17.563        0.776       99.224   7.6045E-01   4.7788E-02   6.3921E-02
     1833.000       82.520       17.480        0.777       99.223   7.6162E-01   4.7626E-02   6.3586E-02
     1833.000       82.604       17.396        0.778       99.222   7.6278E-01   4.7464E-02   6.3251E-02
     1833.000       82.687       17.313        0.779       99.221   7.6395E-01   4.7302E-02   6.2916E-02
     1833.000       82.770       17.230        0.780       99.220   7.6512E-01   4.7140E-02   6.2581E-02
     1833.000       82.853       17.147        0.781       99.219   7.6628E-01   4.6978E-02   6.2247E-02
     1833.000       82.936       17.064        0.782       99.218   7.6745E-01   4.6816E-02   6.1912E-02
     1833.000       83.019       16.981        0.783       99.217   7.6861E-01   4.6654E-02   6.1578E-02
     1833.000       83.102       16.898        0.784       99.216   7.6977E-01   4.6492E-02   6.1244E-02
     1833.000       83.185       16.815        0.785       99.215   7.7094E-01   4.6331E-02   6.0911E-02
     1833.000       83.268       16.732        0.786       99.214   7.7209E-01   4.6169E-02   6.0578E-02
     1833.000       83.350       16.650        0.787       99.213   7.7325E-01   4.6008E-02   6.0245E-02
     1833.000       83.433       16.567        0.788       99.212   7.7441E-01   4.5846E-02   5.9912E-02
     1833.000       83.516       16.484        0.789       99.211   7.7557E-01   4.5684E-02   5.9579E-02
     1833.000       83.599       16.401        0.790       99.210   7.7673E-01   4.5522E-02   5.9246E-02
     1833.000       83.681       16.319        0.791       99.209   7.7789E-01   4.5361E-02   5.8914E-02
     1833.000       83.764       16.236        0.792       99.208   7.7905E-01   4.5199E-02   5.8582E-02
     1833.000       83.846       16.154        0.793       99.207   7.8021E-01   4.5037E-02   5.8250E-02
     1833.000       83.929       16.071        0.794       99.206   7.8137E-01   4.4876E-02   5.7918E-02
     1833.000       84.011       15.989        0.795       99.205   7.8252E-01   4.4714E-02   5.7587E-02
     1833.000       84.094       15.906        0.796       99.204   7.8368E-01   4.4552E-02   5.7256E-02
     1833.000       84.176       15.824        0.797       99.203   7.8483E-01   4.4391E-02   5.6925E-02
     1833.000       84.258       15.742        0.798       99.202   7.8599E-01   4.4229E-02   5.6594E-02
     1833.000       84.341       15.659        0.799       99.201   7.8714E-01   4.4067E-02   5.6264E-02
     1833.000       84.423       15.577        0.800       99.200   7.8829E-01   4.3906E-02   5.5933E-02
     1833.000       84.505       15.495        0.801       99.199   7.8944E-01   4.3744E-02   5.5603E-02
     1833.000       84.587       15.413        0.802       99.198   7.9060E-01   4.3582E-02   5.5273E-02
     1833.000       84.669       15.331        0.803       99.197   7.9175E-01   4.3421E-02   5.4944E-02
     1833.000       84.751       15.249        0.804       99.196   7.9290E-01   4.3259E-02   5.4615E-02
     1833.000       84.833       15.167        0.805       99.195   7.9404E-01   4.3097E-02   5.4286E-02
     1833.000       84.915       15.085        0.806       99.194   7.9519E-01   4.2935E-02   5.3957E-02
     1833.000       84.997       15.003        0.807       99.193   7.9634E-01   4.2774E-02   5.3628E-02
     1833.000       85.079       14.921        0.808       99.192   7.9749E-01   4.2612E-02   5.3300E-02
     1833.000       85.161       14.839        0.809       99.191   7.9863E-01   4.2450E-02   5.2972E-02
     1833.000       85.242       14.758        0.810       99.190   7.9978E-01   4.2288E-02   5.2644E-02
     1833.000       85.324       14.676        0.811       99.189   8.0092E-01   4.2126E-02   5.2316E-02
     1833.000       85.406       14.594        0.812       99.188   8.0207E-01   4.1964E-02   5.1989E-02
     1833.000       85.487       14.513        0.813       99.187   8.0321E-01   4.1802E-02   5.1662E-02
     1833.000       85.569       14.431        0.814       99.186   8.0435E-01   4.1640E-02   5.1335E-02
     1833.000       85.651       14.349        0.815       99.185   8.0550E-01   4.1478E-02   5.1008E-02
     1833.000       85.732       14.268        0.816       99.184   8.0664E-01   4.1316E-02   5.0682E-02
     1833.000       85.814       14.186        0.817       99.183   8.0778E-01   4.1154E-02   5.0356E-02
     1833.000       85.895       14.105        0.818       99.182   8.0892E-01   4.0991E-02   5.0030E-02
     1833.000       85.976       14.024        0.819       99.181   8.1006E-01   4.0829E-02   4.9704E-02
     1833.000       86.058       13.942        0.820       99.180   8.1120E-01   4.0667E-02   4.9379E-02
     1833.000       86.139       13.861        0.821       99.179   8.1232E-01   4.0504E-02   4.9054E-02
     1833.000       86.220       13.780        0.822       99.178   8.1346E-01   4.0342E-02   4.8729E-02
     1833.000       86.301       13.699        0.823       99.177   8.1460E-01   4.0179E-02   4.8405E-02
     1833.000       86.382       13.618        0.824       99.176   8.1573E-01   4.0017E-02   4.8080E-02
     1833.000       86.464       13.536        0.825       99.175   8.1687E-01   3.9854E-02   4.7756E-02
     1833.000       86.545       13.455        0.826       99.174   8.1800E-01   3.9691E-02   4.7433E-02
     1833.000       86.626       13.374        0.827       99.173   8.1915E-01   3.9528E-02   4.7109E-02
     1833.000       86.707       13.293        0.828       99.172   8.2028E-01   3.9364E-02   4.6785E-02
     1833.000       86.787       13.213        0.829       99.171   8.2141E-01   3.9201E-02   4.6462E-02
     1833.000       86.868       13.132        0.830       99.170   8.2254E-01   3.9038E-02   4.6140E-02
     1833.000       86.949       13.051        0.831       99.169   8.2367E-01   3.8875E-02   4.5817E-02
     1833.000       87.030       12.970        0.832       99.168   8.2480E-01   3.8711E-02   4.5495E-02
     1833.000       87.111       12.889        0.833       99.167   8.2593E-01   3.8548E-02   4.5173E-02
     1833.000       87.191       12.809        0.834       99.166   8.2706E-01   3.8384E-02   4.4852E-02
     1833.000       87.272       12.728        0.835       99.165   8.2819E-01   3.8220E-02   4.4530E-02
     1833.000       87.353       12.647        0.836       99.164   8.2932E-01   3.8056E-02   4.4209E-02
     1833.000       87.433       12.567        0.837       99.163   8.3044E-01   3.7892E-02   4.3888E-02
     1833.000       87.514       12.486        0.838       99.162   8.3157E-01   3.7728E-02   4.3568E-02
     1833.000       87.594       12.406        0.839       99.161   8.3269E-01   3.7564E-02   4.3248E-02
     1833.000       87.675       12.325        0.840       99.160   8.3382E-01   3.7399E-02   4.2928E-02
     1833.000       87.755       12.245        0.841       99.159   8.3494E-01   3.7235E-02   4.2608E-02
     1833.000       87.835       12.165        0.842       99.158   8.3606E-01   3.7070E-02   4.2289E-02
     1833.000       87.916       12.084        0.843       99.157   8.3718E-01   3.6905E-02   4.1970E-02
     1833.000       87.996       12.004        0.844       99.156   8.3831E-01   3.6740E-02   4.1651E-02
     1833.000       88.076       11.924        0.845       99.155   8.3943E-01   3.6575E-02   4.1333E-02
     1833.000       88.156       11.844        0.846       99.154   8.4055E-01   3.6410E-02   4.1014E-02
     1833.000       88.236       11.764        0.847       99.153   8.4167E-01   3.6244E-02   4.0697E-02
     1833.000       88.316       11.684        0.848       99.152   8.4278E-01   3.6079E-02   4.0379E-02
     1833.000       88.396       11.604        0.849       99.151   8.4390E-01   3.5913E-02   4.0062E-02
     1833.000       88.476       11.524        0.850       99.150   8.4502E-01   3.5747E-02   3.9745E-02
     1833.000       88.556       11.444        0.851       99.149   8.4613E-01   3.5581E-02   3.9428E-02
     1833.000       88.636       11.364        0.852       99.148   8.4725E-01   3.5414E-02   3.9112E-02
     1833.000       88.716       11.284        0.853       99.147   8.4836E-01   3.5248E-02   3.8796E-02
     1833.000       88.796       11.204        0.854       99.146   8.4948E-01   3.5081E-02   3.8480E-02
     1833.000       88.876       11.124        0.855       99.145   8.5058E-01   3.4914E-02   3.8165E-02
     1833.000       88.955       11.045        0.856       99.144   8.5169E-01   3.4747E-02   3.7850E-02
     1833.000       89.035       10.965        0.857       99.143   8.5281E-01   3.4580E-02   3.7535E-02
     1833.000       89.115       10.885        0.858       99.142   8.5392E-01   3.4412E-02   3.7221E-02
     1833.000       89.194       10.806        0.859       99.141   8.5504E-01   3.4244E-02   3.6906E-02
     1833.000       89.274       10.726        0.860       99.140   8.5614E-01   3.4076E-02   3.6593E-02
     1833.000       89.353       10.647        0.861       99.139   8.5725E-01   3.3908E-02   3.6279E-02
     1833.000       89.433       10.567        0.862       99.138   8.5836E-01   3.3740E-02   3.5966E-02
     1833.000       89.512       10.488        0.863       99.137   8.5947E-01   3.3571E-02   3.5653E-02
     1833.000       89.592       10.408        0.864       99.136   8.6057E-01   3.3402E-02   3.5341E-02
     1833.000       89.671       10.329        0.865       99.135   8.6168E-01   3.3233E-02   3.5029E-02
     1833.000       89.750       10.250        0.866       99.134   8.6278E-01   3.3064E-02   3.4717E-02
     1833.000       89.830       10.170        0.867       99.133   8.6389E-01   3.2894E-02   3.4405E-02
     1833.000       89.909       10.091        0.868       99.132   8.6499E-01   3.2724E-02   3.4094E-02
     1833.000       89.988       10.012        0.869       99.131   8.6609E-01   3.2554E-02   3.3784E-02
     1833.000       90.067        9.933        0.870       99.130   8.6720E-01   3.2383E-02   3.3473E-02
     1833.000       90.146        9.854        0.871       99.129   8.6830E-01   3.2213E-02   3.3163E-02
     1833.000       90.225        9.775        0.872       99.128   8.6940E-01   3.2041E-02   3.2854E-02
     1833.000       90.304        9.696        0.873       99.127   8.7050E-01   3.1870E-02   3.2544E-02
     1833.000       90.383        9.617        0.874       99.126   8.7159E-01   3.1699E-02   3.2235E-02
     1833.000       90.462        9.538        0.875       99.125   8.7269E-01   3.1527E-02   3.1927E-02
     1833.000       90.541        9.459        0.876       99.124   8.7379E-01   3.1354E-02   3.1619E-02
     1833.000       90.620        9.380        0.877       99.123   8.7489E-01   3.1182E-02   3.1311E-02
     1833.000       90.698        9.302        0.878       99.122   8.7598E-01   3.1009E-02   3.1003E-02
     1833.000       90.777        9.223        0.879       99.121   8.7708E-01   3.0836E-02   3.0696E-02
     1833.000       90.856        9.144        0.880       99.120   8.7817E-01   3.0662E-02   3.0389E-02
     1833.000       90.935        9.065        0.881       99.119   8.7926E-01   3.0488E-02   3.0083E-02
     1833.000       91.013        8.987        0.882       99.118   8.8035E-01   3.0314E-02   2.9777E-02
     1833.000       91.092        8.908        0.883       99.117   8.8144E-01   3.0139E-02   2.9472E-02
     1833.000       91.170        8.830        0.884       99.116   8.8254E-01   2.9964E-02   2.9167E-02
     1833.000       91.249        8.751        0.885       99.115   8.8361E-01   2.9789E-02   2.8862E-02
     1833.000       91.327        8.673        0.886       99.114   8.8470E-01   2.9614E-02   2.8558E-02
     1833.000       91.406        8.594        0.887       99.113   8.8579E-01   2.9438E-02   2.8254E-02
     1833.000       91.484        8.516        0.888       99.112   8.8689E-01   2.9261E-02   2.7950E-02
     1833.000       91.562        8.438        0.889       99.111   8.8797E-01   2.9084E-02   2.7647E-02
     1833.000       91.641        8.359        0.890       99.110   8.8906E-01   2.8907E-02   2.7344E-02
     1833.000       91.719        8.281        0.891       99.109   8.9014E-01   2.8729E-02   2.7042E-02
     1833.000       91.797        8.203        0.892       99.108   8.9123E-01   2.8551E-02   2.6740E-02
     1833.000       91.875        8.125        0.893       99.107   8.9231E-01   2.8372E-02   2.6439E-02
     1833.000       91.953        8.047        0.894       99.106   8.9339E-01   2.8193E-02   2.6138E-02
     1833.000       92.031        7.969        0.895       99.105   8.9447E-01   2.8014E-02   2.5837E-02
     1833.000       92.109        7.891        0.896       99.104   8.9555E-01   2.7834E-02   2.5537E-02
     1833.000       92.187        7.813        0.897       99.103   8.9663E-01   2.7653E-02   2.5237E-02
     1833.000       92.265        7.735        0.898       99.102   8.9771E-01   2.7472E-02   2.4938E-02
     1833.000       92.343        7.657        0.899       99.101   8.9879E-01   2.7291E-02   2.4639E-02
     1833.000       92.421        7.579        0.900       99.100   8.9987E-01   2.7109E-02   2.4341E-02
     1833.000       92.499        7.501        0.901       99.099   9.0094E-01   2.6926E-02   2.4043E-02
     1833.000       92.576        7.424        0.902       99.098   9.0202E-01   2.6743E-02   2.3746E-02
     1833.000       92.654        7.346        0.903       99.097   9.0309E-01   2.6560E-02   2.3449E-02
     1833.000       92.732        7.268        0.904       99.096   9.0417E-01   2.6376E-02   2.3153E-02
     1833.000       92.810        7.190        0.905       99.095   9.0524E-01   2.6191E-02   2.2857E-02
     1833.000       92.887        7.113        0.906       99.094   9.0631E-01   2.6006E-02   2.2561E-02
     1833.000       92.965        7.035        0.907       99.093   9.0738E-01   2.5820E-02   2.2266E-02
     1833.000       93.042        6.958        0.908       99.092   9.0845E-01   2.5634E-02   2.1972E-02
     1833.000       93.120        6.880        0.909       99.091   9.0952E-01   2.5447E-02   2.1678E-02
     1833.000       93.197        6.803        0.910       99.090   9.1059E-01   2.5259E-02   2.1385E-02
     1833.000       93.275        6.725        0.911       99.089   9.1164E-01   2.5071E-02   2.1092E-02
     1833.000       93.352        6.648        0.912       99.088   9.1271E-01   2.4882E-02   2.0800E-02
     1833.000       93.429        6.571        0.913       99.087   9.1378E-01   2.4693E-02   2.0508E-02
     1833.000       93.506        6.494        0.914       99.086   9.1485E-01   2.4502E-02   2.0217E-02
     1833.000       93.584        6.416        0.915       99.085   9.1591E-01   2.4312E-02   1.9926E-02
     1833.000       93.661        6.339        0.916       99.084   9.1697E-01   2.4120E-02   1.9636E-02
     1833.000       93.738        6.262        0.917       99.083   9.1803E-01   2.3928E-02   1.9346E-02
     1833.000       93.815        6.185        0.918       99.082   9.1909E-01   2.3735E-02   1.9057E-02
     1833.000       93.892        6.108        0.919       99.081   9.2015E-01   2.3541E-02   1.8769E-02
     1833.000       93.969        6.031        0.920       99.080   9.2121E-01   2.3346E-02   1.8481E-02
     1833.000       94.046        5.954        0.921       99.079   9.2227E-01   2.3151E-02   1.8194E-02
     1833.000       94.123        5.877        0.922       99.078   9.2332E-01   2.2955E-02   1.7907E-02
     1833.000       94.200        5.800        0.923       99.077   9.2438E-01   2.2758E-02   1.7621E-02
     1833.000       94.277        5.723        0.924       99.076   9.2543E-01   2.2560E-02   1.7336E-02
     1833.000       94.354        5.646        0.925       99.075   9.2648E-01   2.2361E-02   1.7051E-02
     1833.000       94.430        5.570        0.926       99.074   9.2754E-01   2.2161E-02   1.6767E-02
     1833.000       94.507        5.493        0.927       99.073   9.2859E-01   2.1961E-02   1.6484E-02
     1833.000       94.584        5.416        0.928       99.072   9.2964E-01   2.1759E-02   1.6201E-02
     1833.000       94.660        5.340        0.929       99.071   9.3069E-01   2.1557E-02   1.5919E-02
     1833.000       94.737        5.263        0.930       99.070   9.3173E-01   2.1354E-02   1.5638E-02
     1833.000       94.814        5.186        0.931       99.069   9.3278E-01   2.1149E-02   1.5357E-02
     1833.000       94.890        5.110        0.932       99.068   9.3382E-01   2.0944E-02   1.5077E-02
     1833.000       94.967        5.033        0.933       99.067   9.3486E-01   2.0738E-02   1.4798E-02
     1833.000       95.043        4.957        0.934       99.066   9.3591E-01   2.0530E-02   1.4519E-02
     1833.000       95.120        4.880        0.935       99.065   9.3695E-01   2.0321E-02   1.4242E-02
     1833.000       95.196        4.804        0.936       99.064   9.3799E-01   2.0112E-02   1.3965E-02
     1833.000       95.272        4.728        0.937       99.063   9.3903E-01   1.9901E-02   1.3689E-02
     1833.000       95.349        4.651        0.938       99.062   9.4007E-01   1.9689E-02   1.3413E-02
     1833.000       95.425        4.575        0.939       99.061   9.4111E-01   1.9475E-02   1.3139E-02
     1833.000       95.501        4.499        0.940       99.060   9.4214E-01   1.9261E-02   1.2865E-02
     1833.000       95.577        4.423        0.941       99.059   9.4318E-01   1.9045E-02   1.2592E-02
     1833.000       95.653        4.347        0.942       99.058   9.4421E-01   1.8828E-02   1.2320E-02
     1833.000       95.729        4.271        0.943       99.057   9.4524E-01   1.8609E-02   1.2049E-02
     1833.000       95.805        4.195        0.944       99.056   9.4627E-01   1.8389E-02   1.1779E-02
     1833.000       95.881        4.119        0.945       99.055   9.4730E-01   1.8168E-02   1.1509E-02
     1833.000       95.957        4.043        0.946       99.054   9.4833E-01   1.7945E-02   1.1241E-02
     1833.000       96.033        3.967        0.947       99.053   9.4936E-01   1.7721E-02   1.0973E-02
     1833.000       96.109        3.891        0.948       99.052   9.5038E-01   1.7495E-02   1.0707E-02
     1833.000       96.185        3.815        0.949       99.051   9.5141E-01   1.7267E-02   1.0442E-02
     1833.000       96.261        3.739        0.950       99.050   9.5242E-01   1.7038E-02   1.0177E-02
     1833.000       96.337        3.663        0.951       99.049   9.5345E-01   1.6807E-02   9.9138E-03
     1833.000       96.412        3.588        0.952       99.048   9.5447E-01   1.6575E-02   9.6515E-03
     1833.000       96.488        3.512        0.953       99.047   9.5549E-01   1.6340E-02   9.3904E-03
     1833.000       96.564        3.436        0.954       99.046   9.5650E-01   1.6104E-02   9.1304E-03
     1833.000       96.639        3.361        0.955       99.045   9.5752E-01   1.5866E-02   8.8716E-03
     1833.000       96.715        3.285        0.956       99.044   9.5853E-01   1.5625E-02   8.6139E-03
     1833.000       96.790        3.210        0.957       99.043   9.5954E-01   1.5383E-02   8.3575E-03
     1833.000       96.866        3.134        0.958       99.042   9.6055E-01   1.5138E-02   8.1024E-03
     1833.000       96.941        3.059        0.959       99.041   9.6156E-01   1.4892E-02   7.8487E-03
     1833.000       97.017        2.983        0.960       99.040   9.6257E-01   1.4642E-02   7.5962E-03
     1833.000       97.092        2.908        0.961       99.039   9.6357E-01   1.4391E-02   7.3452E-03
     1833.000       97.167        2.833        0.962       99.038   9.6458E-01   1.4137E-02   7.0956E-03
     1833.000       97.242        2.758        0.963       99.037   9.6558E-01   1.3880E-02   6.8475E-03
     1833.000       97.318        2.682        0.964       99.036   9.6658E-01   1.3621E-02   6.6009E-03
     1833.000       97.393        2.607        0.965       99.035   9.6757E-01   1.3359E-02   6.3559E-03
     1833.000       97.468        2.532        0.966       99.034   9.6857E-01   1.3094E-02   6.1126E-03
     1833.000       97.543        2.457        0.967       99.033   9.6956E-01   1.2826E-02   5.8710E-03
     1833.000       97.618        2.382        0.968       99.032   9.7055E-01   1.2555E-02   5.6312E-03
     1833.000       97.693        2.307        0.969       99.031   9.7154E-01   1.2281E-02   5.3932E-03
     1833.000       97.768        2.232        0.970       99.030   9.7253E-01   1.2003E-02   5.1571E-03
     1833.000       97.843        2.157        0.971       99.029   9.7351E-01   1.1721E-02   4.9231E-03
     1833.000       97.918        2.082        0.972       99.028   9.7449E-01   1.1436E-02   4.6911E-03
     1833.000       97.993        2.007        0.973       99.027   9.7547E-01   1.1147E-02   4.4613E-03
     1833.000       98.068        1.932        0.974       99.026   9.7645E-01   1.0853E-02   4.2338E-03
     1833.000       98.143        1.857        0.975       99.025   9.7742E-01   1.0556E-02   4.0086E-03
     1833.000       98.217        1.783        0.976       99.024   9.7839E-01   1.0253E-02   3.7860E-03
     1833.000       98.292        1.708        0.977       99.023   9.7936E-01   9.9461E-03   3.5660E-03
     1833.000       98.367        1.633        0.978       99.022   9.8032E-01   9.6337E-03   3.3488E-03
     1833.000       98.442        1.558        0.979       99.021   9.8128E-01   9.3158E-03   3.1345E-03
     1833.000       98.516        1.484        0.980       99.020   9.8224E-01   8.9921E-03   2.9234E-03
     1833.000       98.591        1.409        0.981       99.019   9.8319E-01   8.6623E-03   2.7155E-03
     1833.000       98.665        1.335        0.982       99.018   9.8414E-01   8.3258E-03   2.5110E-03
     1833.000       98.740        1.260        0.983       99.017   9.8509E-01   7.9824E-03   2.3103E-03
     1833.000       98.814        1.186        0.984       99.016   9.8603E-01   7.6313E-03   2.1136E-03
     1833.000       98.889        1.111        0.985       99.015   9.8696E-01   7.2721E-03   1.9212E-03
     1833.000       98.963        1.037        0.986       99.014   9.8790E-01   6.9042E-03   1.7333E-03
     1833.000       99.037        0.963        0.987       99.013   9.8882E-01   6.5267E-03   1.5504E-03
     1833.000       99.112        0.888        0.988       99.012   9.8974E-01   6.1388E-03   1.3729E-03
     1833.000       99.186        0.814        0.989       99.011   9.9066E-01   5.7396E-03   1.2012E-03
     1833.000       99.260        0.740        0.990       99.010   9.9156E-01   5.3279E-03   1.0360E-03
     1833.000       99.334        0.666        0.991       99.009   9.9246E-01   4.9023E-03   8.7793E-04
     1833.000       99.408        0.592        0.992       99.008   9.9336E-01   4.4613E-03   7.2773E-04
     1833.000       99.482        0.518        0.993       99.007   9.9424E-01   4.0030E-03   5.8641E-04
     1833.000       99.556        0.444        0.994       99.006   9.9511E-01   3.5250E-03   4.5513E-04
     1833.000       99.630        0.370        0.995       99.005   9.9597E-01   3.0244E-03   3.3533E-04
     1833.000       99.704        0.296        0.996       99.004   9.9682E-01   2.4976E-03   2.2887E-04
     1833.000       99.778        0.222        0.997       99.003   9.9765E-01   1.9396E-03   1.3814E-04
     1833.000       99.852        0.148        0.998       99.002   9.9846E-01   1.3441E-03   6.6392E-05
     1833.000       99.926        0.074        0.999       99.001   9.9924E-01   7.0199E-04   1.8125E-05
     1833.000      100.000        0.000        1.000       99.000   1.0000E+00   0.0000E+00   0.0000E+00
