   Temp (K)   mole % SiO2  mole % ZnO     wt % SiO2    wt % ZnO     a(SiO2)      a(ZnO)     a(Zn2SiO4)  
     1873.000        0.135       99.865        0.001       99.999   3.7818E-05   9.9601E-01   1.3166E-03
     1873.000        0.271       99.729        0.002       99.998   7.6201E-05   9.9203E-01   2.6317E-03
     1873.000        0.406       99.594        0.003       99.997   1.1516E-04   9.8805E-01   3.9453E-03
     1873.000        0.541       99.459        0.004       99.996   1.5470E-04   9.8407E-01   5.2573E-03
     1873.000        0.676       99.324        0.005       99.995   1.9483E-04   9.8010E-01   6.5677E-03
     1873.000        0.811       99.189        0.006       99.994   2.3556E-04   9.7613E-01   7.8766E-03
     1873.000        0.946       99.054        0.007       99.993   2.7690E-04   9.7217E-01   9.1840E-03
     1873.000        1.081       98.919        0.008       99.992   3.1886E-04   9.6821E-01   1.0490E-02
     1873.000        1.216       98.784        0.009       99.991   3.6145E-04   9.6426E-01   1.1794E-02
     1873.000        1.350       98.650        0.010       99.990   4.0468E-04   9.6030E-01   1.3097E-02
     1873.000        1.485       98.515        0.011       99.989   4.4856E-04   9.5636E-01   1.4398E-02
     1873.000        1.619       98.381        0.012       99.988   4.9310E-04   9.5241E-01   1.5697E-02
     1873.000        1.753       98.247        0.013       99.987   5.3832E-04   9.4848E-01   1.6995E-02
     1873.000        1.887       98.113        0.014       99.986   5.8420E-04   9.4454E-01   1.8291E-02
     1873.000        2.022       97.978        0.015       99.985   6.3079E-04   9.4061E-01   1.9585E-02
     1873.000        2.156       97.844        0.016       99.984   6.7808E-04   9.3669E-01   2.0878E-02
     1873.000        2.290       97.710        0.017       99.983   7.2608E-04   9.3277E-01   2.2169E-02
     1873.000        2.423       97.577        0.018       99.982   7.7481E-04   9.2885E-01   2.3459E-02
     1873.000        2.557       97.443        0.019       99.981   8.2428E-04   9.2493E-01   2.4747E-02
     1873.000        2.691       97.309        0.020       99.980   8.7448E-04   9.2103E-01   2.6033E-02
     1873.000        2.824       97.176        0.021       99.979   9.2547E-04   9.1712E-01   2.7317E-02
     1873.000        2.958       97.042        0.022       99.978   9.7722E-04   9.1322E-01   2.8600E-02
     1873.000        3.091       96.909        0.023       99.977   1.0297E-03   9.0933E-01   2.9881E-02
     1873.000        3.224       96.776        0.024       99.976   1.0831E-03   9.0543E-01   3.1160E-02
     1873.000        3.357       96.643        0.025       99.975   1.1372E-03   9.0155E-01   3.2438E-02
     1873.000        3.491       96.509        0.026       99.974   1.1922E-03   8.9766E-01   3.3714E-02
     1873.000        3.624       96.376        0.027       99.973   1.2480E-03   8.9379E-01   3.4988E-02
     1873.000        3.756       96.244        0.028       99.972   1.3047E-03   8.8991E-01   3.6260E-02
     1873.000        3.889       96.111        0.029       99.971   1.3622E-03   8.8605E-01   3.7530E-02
     1873.000        4.022       95.978        0.030       99.970   1.4206E-03   8.8218E-01   3.8799E-02
     1873.000        4.155       95.845        0.031       99.969   1.4799E-03   8.7832E-01   4.0066E-02
     1873.000        4.287       95.713        0.032       99.968   1.5401E-03   8.7447E-01   4.1331E-02
     1873.000        4.419       95.581        0.033       99.967   1.6013E-03   8.7062E-01   4.2594E-02
     1873.000        4.552       95.448        0.034       99.966   1.6634E-03   8.6677E-01   4.3855E-02
     1873.000        4.684       95.316        0.035       99.965   1.7264E-03   8.6293E-01   4.5114E-02
     1873.000        4.816       95.184        0.036       99.964   1.7904E-03   8.5909E-01   4.6372E-02
     1873.000        4.948       95.052        0.037       99.963   1.8554E-03   8.5526E-01   4.7627E-02
     1873.000        5.080       94.920        0.038       99.962   1.9214E-03   8.5143E-01   4.8881E-02
     1873.000        5.212       94.788        0.039       99.961   1.9884E-03   8.4761E-01   5.0132E-02
     1873.000        5.344       94.656        0.040       99.960   2.0564E-03   8.4379E-01   5.1382E-02
     1873.000        5.475       94.525        0.041       99.959   2.1255E-03   8.3998E-01   5.2630E-02
     1873.000        5.607       94.393        0.042       99.958   2.1957E-03   8.3618E-01   5.3876E-02
     1873.000        5.739       94.261        0.043       99.957   2.2670E-03   8.3237E-01   5.5119E-02
     1873.000        5.870       94.130        0.044       99.956   2.3393E-03   8.2858E-01   5.6361E-02
     1873.000        6.001       93.999        0.045       99.955   2.4128E-03   8.2478E-01   5.7601E-02
     1873.000        6.132       93.868        0.046       99.954   2.4874E-03   8.2100E-01   5.8838E-02
     1873.000        6.264       93.736        0.047       99.953   2.5632E-03   8.1721E-01   6.0074E-02
     1873.000        6.395       93.605        0.048       99.952   2.6402E-03   8.1344E-01   6.1307E-02
     1873.000        6.526       93.474        0.049       99.951   2.7184E-03   8.0966E-01   6.2538E-02
     1873.000        6.656       93.344        0.050       99.950   2.7978E-03   8.0590E-01   6.3768E-02
     1873.000        6.787       93.213        0.051       99.949   2.8784E-03   8.0214E-01   6.4994E-02
     1873.000        6.918       93.082        0.052       99.948   2.9603E-03   7.9838E-01   6.6219E-02
     1873.000        7.048       92.952        0.053       99.947   3.0435E-03   7.9463E-01   6.7442E-02
     1873.000        7.179       92.821        0.054       99.946   3.1280E-03   7.9088E-01   6.8662E-02
     1873.000        7.309       92.691        0.055       99.945   3.2138E-03   7.8714E-01   6.9881E-02
     1873.000        7.440       92.560        0.056       99.944   3.3010E-03   7.8341E-01   7.1096E-02
     1873.000        7.570       92.430        0.057       99.943   3.3896E-03   7.7968E-01   7.2310E-02
     1873.000        7.700       92.300        0.058       99.942   3.4795E-03   7.7595E-01   7.3522E-02
     1873.000        7.830       92.170        0.059       99.941   3.5709E-03   7.7224E-01   7.4730E-02
     1873.000        7.960       92.040        0.060       99.940   3.6637E-03   7.6852E-01   7.5937E-02
     1873.000        8.090       91.910        0.061       99.939   3.7579E-03   7.6481E-01   7.7142E-02
     1873.000        8.220       91.780        0.062       99.938   3.8537E-03   7.6111E-01   7.8343E-02
     1873.000        8.349       91.651        0.063       99.937   3.9510E-03   7.5742E-01   7.9543E-02
     1873.000        8.479       91.521        0.064       99.936   4.0498E-03   7.5373E-01   8.0740E-02
     1873.000        8.608       91.392        0.065       99.935   4.1502E-03   7.5004E-01   8.1934E-02
     1873.000        8.738       91.262        0.066       99.934   4.2522E-03   7.4637E-01   8.3127E-02
     1873.000        8.867       91.133        0.067       99.933   4.3558E-03   7.4269E-01   8.4316E-02
     1873.000        8.996       91.004        0.068       99.932   4.4610E-03   7.3903E-01   8.5503E-02
     1873.000        9.125       90.875        0.069       99.931   4.5680E-03   7.3537E-01   8.6687E-02
     1873.000        9.254       90.746        0.070       99.930   4.6766E-03   7.3171E-01   8.7869E-02
     1873.000        9.383       90.617        0.071       99.929   4.7870E-03   7.2806E-01   8.9049E-02
     1873.000        9.512       90.488        0.072       99.928   4.8991E-03   7.2442E-01   9.0225E-02
     1873.000        9.641       90.359        0.073       99.927   5.0130E-03   7.2079E-01   9.1399E-02
     1873.000        9.770       90.230        0.074       99.926   5.1288E-03   7.1716E-01   9.2570E-02
     1873.000        9.898       90.102        0.075       99.925   5.2464E-03   7.1354E-01   9.3739E-02
     1873.000       10.027       89.973        0.076       99.924   5.3659E-03   7.0992E-01   9.4904E-02
     1873.000       10.155       89.845        0.077       99.923   5.4873E-03   7.0631E-01   9.6067E-02
     1873.000       10.284       89.716        0.078       99.922   5.6107E-03   7.0271E-01   9.7227E-02
     1873.000       10.412       89.588        0.079       99.921   5.7360E-03   6.9911E-01   9.8384E-02
     1873.000       10.540       89.460        0.080       99.920   5.8634E-03   6.9552E-01   9.9538E-02
     1873.000       10.668       89.332        0.081       99.919   5.9928E-03   6.9194E-01   1.0069E-01
     1873.000       10.796       89.204        0.082       99.918   6.1243E-03   6.8836E-01   1.0184E-01
     1873.000       10.924       89.076        0.083       99.917   6.2579E-03   6.8479E-01   1.0298E-01
     1873.000       11.052       88.948        0.084       99.916   6.3937E-03   6.8123E-01   1.0413E-01
     1873.000       11.179       88.821        0.085       99.915   6.5316E-03   6.7767E-01   1.0527E-01
     1873.000       11.307       88.693        0.086       99.914   6.6718E-03   6.7412E-01   1.0640E-01
     1873.000       11.435       88.565        0.087       99.913   6.8143E-03   6.7058E-01   1.0753E-01
     1873.000       11.562       88.438        0.088       99.912   6.9590E-03   6.6705E-01   1.0866E-01
     1873.000       11.689       88.311        0.089       99.911   7.1061E-03   6.6352E-01   1.0979E-01
     1873.000       11.817       88.183        0.090       99.910   7.2556E-03   6.6000E-01   1.1091E-01
     1873.000       11.944       88.056        0.091       99.909   7.4074E-03   6.5649E-01   1.1203E-01
     1873.000       12.071       87.929        0.092       99.908   7.5618E-03   6.5298E-01   1.1315E-01
     1873.000       12.198       87.802        0.093       99.907   7.7187E-03   6.4949E-01   1.1426E-01
     1873.000       12.325       87.675        0.094       99.906   7.8780E-03   6.4600E-01   1.1537E-01
     1873.000       12.452       87.548        0.095       99.905   8.0400E-03   6.4252E-01   1.1648E-01
     1873.000       12.579       87.421        0.096       99.904   8.2046E-03   6.3904E-01   1.1758E-01
     1873.000       12.705       87.295        0.097       99.903   8.3719E-03   6.3558E-01   1.1868E-01
     1873.000       12.832       87.168        0.098       99.902   8.5419E-03   6.3212E-01   1.1978E-01
     1873.000       12.958       87.042        0.099       99.901   8.7146E-03   6.2867E-01   1.2087E-01
     1873.000       13.085       86.915        0.100       99.900   8.8901E-03   6.2523E-01   1.2196E-01
     1873.000       13.211       86.789        0.101       99.899   9.0685E-03   6.2180E-01   1.2304E-01
     1873.000       13.337       86.663        0.102       99.898   9.2498E-03   6.1837E-01   1.2413E-01
     1873.000       13.463       86.537        0.103       99.897   9.4340E-03   6.1496E-01   1.2520E-01
     1873.000       13.589       86.411        0.104       99.896   9.6212E-03   6.1155E-01   1.2628E-01
     1873.000       13.715       86.285        0.105       99.895   9.8115E-03   6.0815E-01   1.2735E-01
     1873.000       13.841       86.159        0.106       99.894   1.0005E-02   6.0476E-01   1.2841E-01
     1873.000       13.967       86.033        0.107       99.893   1.0201E-02   6.0138E-01   1.2947E-01
     1873.000       14.093       85.907        0.108       99.892   1.0401E-02   5.9801E-01   1.3053E-01
     1873.000       14.218       85.782        0.109       99.891   1.0604E-02   5.9464E-01   1.3158E-01
     1873.000       14.344       85.656        0.110       99.890   1.0810E-02   5.9129E-01   1.3263E-01
     1873.000       14.469       85.531        0.111       99.889   1.1019E-02   5.8794E-01   1.3368E-01
     1873.000       14.595       85.405        0.112       99.888   1.1232E-02   5.8461E-01   1.3472E-01
     1873.000       14.720       85.280        0.113       99.887   1.1449E-02   5.8128E-01   1.3576E-01
     1873.000       14.845       85.155        0.114       99.886   1.1668E-02   5.7797E-01   1.3679E-01
     1873.000       14.970       85.030        0.115       99.885   1.1892E-02   5.7466E-01   1.3782E-01
     1873.000       15.095       84.905        0.116       99.884   1.2119E-02   5.7136E-01   1.3884E-01
     1873.000       15.220       84.780        0.117       99.883   1.2349E-02   5.6808E-01   1.3986E-01
     1873.000       15.345       84.655        0.118       99.882   1.2584E-02   5.6480E-01   1.4087E-01
     1873.000       15.470       84.530        0.119       99.881   1.2822E-02   5.6153E-01   1.4188E-01
     1873.000       15.595       84.405        0.120       99.880   1.3064E-02   5.5827E-01   1.4289E-01
     1873.000       15.719       84.281        0.121       99.879   1.3310E-02   5.5503E-01   1.4389E-01
     1873.000       15.844       84.156        0.122       99.878   1.3559E-02   5.5179E-01   1.4488E-01
     1873.000       15.968       84.032        0.123       99.877   1.3813E-02   5.4857E-01   1.4587E-01
     1873.000       16.093       83.907        0.124       99.876   1.4071E-02   5.4535E-01   1.4686E-01
     1873.000       16.217       83.783        0.125       99.875   1.4333E-02   5.4215E-01   1.4784E-01
     1873.000       16.341       83.659        0.126       99.874   1.4599E-02   5.3895E-01   1.4882E-01
     1873.000       16.465       83.535        0.127       99.873   1.4869E-02   5.3577E-01   1.4979E-01
     1873.000       16.589       83.411        0.128       99.872   1.5144E-02   5.3260E-01   1.5075E-01
     1873.000       16.713       83.287        0.129       99.871   1.5423E-02   5.2944E-01   1.5171E-01
     1873.000       16.837       83.163        0.130       99.870   1.5706E-02   5.2629E-01   1.5267E-01
     1873.000       16.961       83.039        0.131       99.869   1.5994E-02   5.2315E-01   1.5362E-01
     1873.000       17.084       82.916        0.132       99.868   1.6286E-02   5.2003E-01   1.5456E-01
     1873.000       17.208       82.792        0.133       99.867   1.6583E-02   5.1691E-01   1.5550E-01
     1873.000       17.332       82.668        0.134       99.866   1.6885E-02   5.1381E-01   1.5643E-01
     1873.000       17.455       82.545        0.135       99.865   1.7191E-02   5.1072E-01   1.5736E-01
     1873.000       17.578       82.422        0.136       99.864   1.7502E-02   5.0764E-01   1.5828E-01
     1873.000       17.702       82.298        0.137       99.863   1.7818E-02   5.0458E-01   1.5920E-01
     1873.000       17.825       82.175        0.138       99.862   1.8139E-02   5.0152E-01   1.6011E-01
     1873.000       17.948       82.052        0.139       99.861   1.8465E-02   4.9848E-01   1.6102E-01
     1873.000       18.071       81.929        0.140       99.860   1.8796E-02   4.9545E-01   1.6192E-01
     1873.000       18.194       81.806        0.141       99.859   1.9132E-02   4.9244E-01   1.6281E-01
     1873.000       18.317       81.683        0.142       99.858   1.9473E-02   4.8943E-01   1.6370E-01
     1873.000       18.439       81.561        0.143       99.857   1.9819E-02   4.8645E-01   1.6458E-01
     1873.000       18.562       81.438        0.144       99.856   2.0170E-02   4.8347E-01   1.6545E-01
     1873.000       18.685       81.315        0.145       99.855   2.0527E-02   4.8050E-01   1.6632E-01
     1873.000       18.807       81.193        0.146       99.854   2.0890E-02   4.7755E-01   1.6719E-01
     1873.000       18.930       81.070        0.147       99.853   2.1257E-02   4.7461E-01   1.6804E-01
     1873.000       19.052       80.948        0.148       99.852   2.1631E-02   4.7169E-01   1.6889E-01
     1873.000       19.174       80.826        0.149       99.851   2.2009E-02   4.6878E-01   1.6974E-01
     1873.000       19.296       80.704        0.150       99.850   2.2394E-02   4.6588E-01   1.7057E-01
     1873.000       19.418       80.582        0.151       99.849   2.2784E-02   4.6300E-01   1.7140E-01
     1873.000       19.540       80.460        0.152       99.848   2.3180E-02   4.6013E-01   1.7223E-01
     1873.000       19.662       80.338        0.153       99.847   2.3582E-02   4.5728E-01   1.7305E-01
     1873.000       19.784       80.216        0.154       99.846   2.3989E-02   4.5444E-01   1.7386E-01
     1873.000       19.906       80.094        0.155       99.845   2.4403E-02   4.5161E-01   1.7466E-01
     1873.000       20.028       79.972        0.156       99.844   2.4822E-02   4.4880E-01   1.7546E-01
     1873.000       20.149       79.851        0.157       99.843   2.5248E-02   4.4600E-01   1.7625E-01
     1873.000       20.271       79.729        0.158       99.842   2.5680E-02   4.4322E-01   1.7703E-01
     1873.000       20.392       79.608        0.159       99.841   2.6117E-02   4.4045E-01   1.7781E-01
     1873.000       20.514       79.486        0.160       99.840   2.6561E-02   4.3770E-01   1.7858E-01
     1873.000       20.635       79.365        0.161       99.839   2.7012E-02   4.3496E-01   1.7934E-01
     1873.000       20.756       79.244        0.162       99.838   2.7468E-02   4.3224E-01   1.8010E-01
     1873.000       20.877       79.123        0.163       99.837   2.7931E-02   4.2953E-01   1.8085E-01
     1873.000       20.998       79.002        0.164       99.836   2.8401E-02   4.2684E-01   1.8159E-01
     1873.000       21.119       78.881        0.165       99.835   2.8877E-02   4.2416E-01   1.8232E-01
     1873.000       21.240       78.760        0.166       99.834   2.9359E-02   4.2150E-01   1.8305E-01
     1873.000       21.361       78.639        0.167       99.833   2.9848E-02   4.1885E-01   1.8377E-01
     1873.000       21.482       78.518        0.168       99.832   3.0343E-02   4.1622E-01   1.8448E-01
     1873.000       21.602       78.398        0.169       99.831   3.0845E-02   4.1361E-01   1.8518E-01
     1873.000       21.723       78.277        0.170       99.830   3.1354E-02   4.1101E-01   1.8588E-01
     1873.000       21.843       78.157        0.171       99.829   3.1870E-02   4.0843E-01   1.8657E-01
     1873.000       21.964       78.036        0.172       99.828   3.2392E-02   4.0586E-01   1.8725E-01
     1873.000       22.084       77.916        0.173       99.827   3.2921E-02   4.0331E-01   1.8792E-01
     1873.000       22.204       77.796        0.174       99.826   3.3457E-02   4.0077E-01   1.8859E-01
     1873.000       22.324       77.676        0.175       99.825   3.4000E-02   3.9826E-01   1.8925E-01
     1873.000       22.444       77.556        0.176       99.824   3.4550E-02   3.9575E-01   1.8990E-01
     1873.000       22.564       77.436        0.177       99.823   3.5107E-02   3.9327E-01   1.9054E-01
     1873.000       22.684       77.316        0.178       99.822   3.5671E-02   3.9080E-01   1.9118E-01
     1873.000       22.804       77.196        0.179       99.821   3.6241E-02   3.8834E-01   1.9180E-01
     1873.000       22.924       77.076        0.180       99.820   3.6819E-02   3.8591E-01   1.9242E-01
     1873.000       23.044       76.956        0.181       99.819   3.7404E-02   3.8349E-01   1.9304E-01
     1873.000       23.163       76.837        0.182       99.818   3.7996E-02   3.8108E-01   1.9364E-01
     1873.000       23.283       76.717        0.183       99.817   3.8595E-02   3.7869E-01   1.9424E-01
     1873.000       23.402       76.598        0.184       99.816   3.9201E-02   3.7632E-01   1.9482E-01
     1873.000       23.521       76.479        0.185       99.815   3.9814E-02   3.7397E-01   1.9540E-01
     1873.000       23.641       76.359        0.186       99.814   4.0434E-02   3.7163E-01   1.9598E-01
     1873.000       23.760       76.240        0.187       99.813   4.1062E-02   3.6931E-01   1.9654E-01
     1873.000       23.879       76.121        0.188       99.812   4.1697E-02   3.6701E-01   1.9710E-01
     1873.000       23.998       76.002        0.189       99.811   4.2339E-02   3.6472E-01   1.9765E-01
     1873.000       24.117       75.883        0.190       99.810   4.2988E-02   3.6245E-01   1.9819E-01
     1873.000       24.236       75.764        0.191       99.809   4.3645E-02   3.6020E-01   1.9872E-01
     1873.000       24.355       75.645        0.192       99.808   4.4308E-02   3.5796E-01   1.9924E-01
     1873.000       24.473       75.527        0.193       99.807   4.4979E-02   3.5574E-01   1.9976E-01
     1873.000       24.592       75.408        0.194       99.806   4.5657E-02   3.5354E-01   2.0027E-01
     1873.000       24.711       75.289        0.195       99.805   4.6343E-02   3.5135E-01   2.0077E-01
     1873.000       24.829       75.171        0.196       99.804   4.7035E-02   3.4918E-01   2.0126E-01
     1873.000       24.947       75.053        0.197       99.803   4.7735E-02   3.4703E-01   2.0174E-01
     1873.000       25.066       74.934        0.198       99.802   4.8442E-02   3.4490E-01   2.0222E-01
     1873.000       25.184       74.816        0.199       99.801   4.9156E-02   3.4278E-01   2.0269E-01
     1873.000       25.302       74.698        0.200       99.800   4.9878E-02   3.4068E-01   2.0315E-01
     1873.000       25.420       74.580        0.201       99.799   5.0607E-02   3.3859E-01   2.0360E-01
     1873.000       25.538       74.462        0.202       99.798   5.1342E-02   3.3652E-01   2.0405E-01
     1873.000       25.656       74.344        0.203       99.797   5.2085E-02   3.3447E-01   2.0448E-01
     1873.000       25.774       74.226        0.204       99.796   5.2836E-02   3.3243E-01   2.0491E-01
     1873.000       25.892       74.108        0.205       99.795   5.3593E-02   3.3041E-01   2.0533E-01
     1873.000       26.010       73.990        0.206       99.794   5.4357E-02   3.2841E-01   2.0574E-01
     1873.000       26.127       73.873        0.207       99.793   5.5129E-02   3.2643E-01   2.0615E-01
     1873.000       26.245       73.755        0.208       99.792   5.5907E-02   3.2446E-01   2.0654E-01
     1873.000       26.362       73.638        0.209       99.791   5.6693E-02   3.2251E-01   2.0693E-01
     1873.000       26.480       73.520        0.210       99.790   5.7486E-02   3.2057E-01   2.0731E-01
     1873.000       26.597       73.403        0.211       99.789   5.8285E-02   3.1865E-01   2.0769E-01
     1873.000       26.714       73.286        0.212       99.788   5.9092E-02   3.1675E-01   2.0805E-01
     1873.000       26.831       73.169        0.213       99.787   5.9906E-02   3.1486E-01   2.0841E-01
     1873.000       26.948       73.052        0.214       99.786   6.0726E-02   3.1299E-01   2.0876E-01
     1873.000       27.065       72.935        0.215       99.785   6.1553E-02   3.1113E-01   2.0910E-01
     1873.000       27.182       72.818        0.216       99.784   6.2388E-02   3.0929E-01   2.0944E-01
     1873.000       27.299       72.701        0.217       99.783   6.3228E-02   3.0747E-01   2.0977E-01
     1873.000       27.416       72.584        0.218       99.782   6.4076E-02   3.0566E-01   2.1009E-01
     1873.000       27.533       72.467        0.219       99.781   6.4931E-02   3.0387E-01   2.1040E-01
     1873.000       27.649       72.351        0.220       99.780   6.5792E-02   3.0209E-01   2.1071E-01
     1873.000       27.766       72.234        0.221       99.779   6.6659E-02   3.0033E-01   2.1100E-01
     1873.000       27.882       72.118        0.222       99.778   6.7534E-02   2.9859E-01   2.1129E-01
     1873.000       27.999       72.001        0.223       99.777   6.8414E-02   2.9686E-01   2.1158E-01
     1873.000       28.115       71.885        0.224       99.776   6.9302E-02   2.9514E-01   2.1185E-01
     1873.000       28.231       71.769        0.225       99.775   7.0196E-02   2.9344E-01   2.1212E-01
     1873.000       28.347       71.653        0.226       99.774   7.1096E-02   2.9176E-01   2.1238E-01
     1873.000       28.463       71.537        0.227       99.773   7.2003E-02   2.9009E-01   2.1264E-01
     1873.000       28.579       71.421        0.228       99.772   7.2915E-02   2.8844E-01   2.1288E-01
     1873.000       28.695       71.305        0.229       99.771   7.3834E-02   2.8680E-01   2.1312E-01
     1873.000       28.811       71.189        0.230       99.770   7.4760E-02   2.8517E-01   2.1336E-01
     1873.000       28.927       71.073        0.231       99.769   7.5691E-02   2.8356E-01   2.1358E-01
     1873.000       29.043       70.957        0.232       99.768   7.6629E-02   2.8196E-01   2.1380E-01
     1873.000       29.158       70.842        0.233       99.767   7.7573E-02   2.8038E-01   2.1401E-01
     1873.000       29.274       70.726        0.234       99.766   7.8523E-02   2.7882E-01   2.1422E-01
     1873.000       29.389       70.611        0.235       99.765   7.9478E-02   2.7726E-01   2.1442E-01
     1873.000       29.505       70.495        0.236       99.764   8.0440E-02   2.7573E-01   2.1461E-01
     1873.000       29.620       70.380        0.237       99.763   8.1408E-02   2.7420E-01   2.1480E-01
     1873.000       29.735       70.265        0.238       99.762   8.2381E-02   2.7269E-01   2.1498E-01
     1873.000       29.850       70.150        0.239       99.761   8.3360E-02   2.7119E-01   2.1515E-01
     1873.000       29.965       70.035        0.240       99.760   8.4345E-02   2.6971E-01   2.1532E-01
     1873.000       30.080       69.920        0.241       99.759   8.5335E-02   2.6824E-01   2.1548E-01
     1873.000       30.195       69.805        0.242       99.758   8.6331E-02   2.6678E-01   2.1563E-01
     1873.000       30.310       69.690        0.243       99.757   8.7332E-02   2.6534E-01   2.1578E-01
     1873.000       30.425       69.575        0.244       99.756   8.8339E-02   2.6391E-01   2.1592E-01
     1873.000       30.540       69.460        0.245       99.755   8.9351E-02   2.6249E-01   2.1605E-01
     1873.000       30.654       69.346        0.246       99.754   9.0369E-02   2.6109E-01   2.1618E-01
     1873.000       30.769       69.231        0.247       99.753   9.1391E-02   2.5970E-01   2.1630E-01
     1873.000       30.883       69.117        0.248       99.752   9.2420E-02   2.5832E-01   2.1642E-01
     1873.000       30.998       69.002        0.249       99.751   9.3453E-02   2.5695E-01   2.1653E-01
     1873.000       31.112       68.888        0.250       99.750   9.4491E-02   2.5560E-01   2.1664E-01
     1873.000       31.227       68.773        0.251       99.749   9.5535E-02   2.5426E-01   2.1674E-01
     1873.000       31.341       68.659        0.252       99.748   9.6583E-02   2.5293E-01   2.1683E-01
     1873.000       31.455       68.545        0.253       99.747   9.7636E-02   2.5161E-01   2.1692E-01
     1873.000       31.569       68.431        0.254       99.746   9.8694E-02   2.5031E-01   2.1700E-01
     1873.000       31.683       68.317        0.255       99.745   9.9758E-02   2.4901E-01   2.1708E-01
     1873.000       31.797       68.203        0.256       99.744   1.0083E-01   2.4773E-01   2.1715E-01
     1873.000       31.911       68.089        0.257       99.743   1.0190E-01   2.4646E-01   2.1721E-01
     1873.000       32.024       67.976        0.258       99.742   1.0297E-01   2.4520E-01   2.1727E-01
     1873.000       32.138       67.862        0.259       99.741   1.0406E-01   2.4396E-01   2.1733E-01
     1873.000       32.252       67.748        0.260       99.740   1.0514E-01   2.4272E-01   2.1738E-01
     1873.000       32.365       67.635        0.261       99.739   1.0623E-01   2.4150E-01   2.1742E-01
     1873.000       32.479       67.521        0.262       99.738   1.0733E-01   2.4028E-01   2.1746E-01
     1873.000       32.592       67.408        0.263       99.737   1.0843E-01   2.3908E-01   2.1750E-01
     1873.000       32.705       67.295        0.264       99.736   1.0953E-01   2.3789E-01   2.1753E-01
     1873.000       32.818       67.182        0.265       99.735   1.1064E-01   2.3671E-01   2.1755E-01
     1873.000       32.932       67.068        0.266       99.734   1.1175E-01   2.3554E-01   2.1757E-01
     1873.000       33.045       66.955        0.267       99.733   1.1287E-01   2.3438E-01   2.1758E-01
     1873.000       33.158       66.842        0.268       99.732   1.1399E-01   2.3323E-01   2.1759E-01
     1873.000       33.271       66.729        0.269       99.731   1.1511E-01   2.3209E-01   2.1760E-01
     1873.000       33.384       66.616        0.270       99.730   1.1623E-01   2.3097E-01   2.1760E-01
     1873.000       33.496       66.504        0.271       99.729   1.1736E-01   2.2985E-01   2.1760E-01
     1873.000       33.609       66.391        0.272       99.728   1.1850E-01   2.2874E-01   2.1759E-01
     1873.000       33.722       66.278        0.273       99.727   1.1964E-01   2.2764E-01   2.1757E-01
     1873.000       33.834       66.166        0.274       99.726   1.2078E-01   2.2655E-01   2.1755E-01
     1873.000       33.947       66.053        0.275       99.725   1.2193E-01   2.2547E-01   2.1753E-01
     1873.000       34.059       65.941        0.276       99.724   1.2308E-01   2.2440E-01   2.1751E-01
     1873.000       34.172       65.828        0.277       99.723   1.2424E-01   2.2334E-01   2.1747E-01
     1873.000       34.284       65.716        0.278       99.722   1.2539E-01   2.2229E-01   2.1744E-01
     1873.000       34.396       65.604        0.279       99.721   1.2656E-01   2.2125E-01   2.1740E-01
     1873.000       34.508       65.492        0.280       99.720   1.2772E-01   2.2021E-01   2.1736E-01
     1873.000       34.620       65.380        0.281       99.719   1.2889E-01   2.1919E-01   2.1731E-01
     1873.000       34.732       65.268        0.282       99.718   1.3006E-01   2.1817E-01   2.1726E-01
     1873.000       34.844       65.156        0.283       99.717   1.3124E-01   2.1716E-01   2.1720E-01
     1873.000       34.956       65.044        0.284       99.716   1.3241E-01   2.1617E-01   2.1714E-01
     1873.000       35.068       64.932        0.285       99.715   1.3360E-01   2.1518E-01   2.1708E-01
     1873.000       35.180       64.820        0.286       99.714   1.3478E-01   2.1419E-01   2.1701E-01
     1873.000       35.291       64.709        0.287       99.713   1.3597E-01   2.1322E-01   2.1694E-01
     1873.000       35.403       64.597        0.288       99.712   1.3716E-01   2.1226E-01   2.1686E-01
     1873.000       35.514       64.486        0.289       99.711   1.3836E-01   2.1130E-01   2.1678E-01
     1873.000       35.626       64.374        0.290       99.710   1.3955E-01   2.1035E-01   2.1670E-01
     1873.000       35.737       64.263        0.291       99.709   1.4075E-01   2.0941E-01   2.1661E-01
     1873.000       35.848       64.152        0.292       99.708   1.4195E-01   2.0848E-01   2.1652E-01
     1873.000       35.959       64.041        0.293       99.707   1.4316E-01   2.0755E-01   2.1643E-01
     1873.000       36.071       63.929        0.294       99.706   1.4437E-01   2.0664E-01   2.1633E-01
     1873.000       36.182       63.818        0.295       99.705   1.4558E-01   2.0573E-01   2.1623E-01
     1873.000       36.293       63.707        0.296       99.704   1.4679E-01   2.0483E-01   2.1613E-01
     1873.000       36.404       63.596        0.297       99.703   1.4801E-01   2.0393E-01   2.1602E-01
     1873.000       36.514       63.486        0.298       99.702   1.4923E-01   2.0305E-01   2.1591E-01
     1873.000       36.625       63.375        0.299       99.701   1.5045E-01   2.0217E-01   2.1579E-01
     1873.000       36.736       63.264        0.300       99.700   1.5168E-01   2.0129E-01   2.1568E-01
     1873.000       36.847       63.153        0.301       99.699   1.5290E-01   2.0043E-01   2.1556E-01
     1873.000       36.957       63.043        0.302       99.698   1.5413E-01   1.9957E-01   2.1543E-01
     1873.000       37.068       62.932        0.303       99.697   1.5536E-01   1.9872E-01   2.1531E-01
     1873.000       37.178       62.822        0.304       99.696   1.5660E-01   1.9787E-01   2.1518E-01
     1873.000       37.288       62.712        0.305       99.695   1.5784E-01   1.9704E-01   2.1504E-01
     1873.000       37.399       62.601        0.306       99.694   1.5907E-01   1.9621E-01   2.1491E-01
     1873.000       37.509       62.491        0.307       99.693   1.6032E-01   1.9538E-01   2.1477E-01
     1873.000       37.619       62.381        0.308       99.692   1.6156E-01   1.9456E-01   2.1463E-01
     1873.000       37.729       62.271        0.309       99.691   1.6280E-01   1.9375E-01   2.1448E-01
     1873.000       37.839       62.161        0.310       99.690   1.6405E-01   1.9295E-01   2.1433E-01
     1873.000       37.949       62.051        0.311       99.689   1.6530E-01   1.9215E-01   2.1418E-01
     1873.000       38.059       61.941        0.312       99.688   1.6655E-01   1.9136E-01   2.1403E-01
     1873.000       38.169       61.831        0.313       99.687   1.6781E-01   1.9057E-01   2.1387E-01
     1873.000       38.278       61.722        0.314       99.686   1.6906E-01   1.8979E-01   2.1371E-01
     1873.000       38.388       61.612        0.315       99.685   1.7032E-01   1.8902E-01   2.1355E-01
     1873.000       38.498       61.502        0.316       99.684   1.7158E-01   1.8825E-01   2.1339E-01
     1873.000       38.607       61.393        0.317       99.683   1.7284E-01   1.8749E-01   2.1322E-01
     1873.000       38.717       61.283        0.318       99.682   1.7411E-01   1.8673E-01   2.1305E-01
     1873.000       38.826       61.174        0.319       99.681   1.7537E-01   1.8598E-01   2.1288E-01
     1873.000       38.935       61.065        0.320       99.680   1.7664E-01   1.8524E-01   2.1271E-01
     1873.000       39.044       60.956        0.321       99.679   1.7791E-01   1.8450E-01   2.1253E-01
     1873.000       39.154       60.846        0.322       99.678   1.7918E-01   1.8377E-01   2.1235E-01
     1873.000       39.263       60.737        0.323       99.677   1.8045E-01   1.8304E-01   2.1217E-01
     1873.000       39.372       60.628        0.324       99.676   1.8173E-01   1.8232E-01   2.1198E-01
     1873.000       39.481       60.519        0.325       99.675   1.8300E-01   1.8160E-01   2.1180E-01
     1873.000       39.590       60.410        0.326       99.674   1.8428E-01   1.8089E-01   2.1161E-01
     1873.000       39.698       60.302        0.327       99.673   1.8556E-01   1.8018E-01   2.1142E-01
     1873.000       39.807       60.193        0.328       99.672   1.8684E-01   1.7948E-01   2.1123E-01
     1873.000       39.916       60.084        0.329       99.671   1.8812E-01   1.7879E-01   2.1103E-01
     1873.000       40.024       59.976        0.330       99.670   1.8940E-01   1.7810E-01   2.1083E-01
     1873.000       40.133       59.867        0.331       99.669   1.9069E-01   1.7741E-01   2.1063E-01
     1873.000       40.241       59.759        0.332       99.668   1.9198E-01   1.7673E-01   2.1043E-01
     1873.000       40.350       59.650        0.333       99.667   1.9327E-01   1.7606E-01   2.1023E-01
     1873.000       40.458       59.542        0.334       99.666   1.9455E-01   1.7539E-01   2.1002E-01
     1873.000       40.566       59.434        0.335       99.665   1.9585E-01   1.7472E-01   2.0981E-01
     1873.000       40.675       59.325        0.336       99.664   1.9714E-01   1.7406E-01   2.0960E-01
     1873.000       40.783       59.217        0.337       99.663   1.9843E-01   1.7340E-01   2.0939E-01
     1873.000       40.891       59.109        0.338       99.662   1.9973E-01   1.7275E-01   2.0917E-01
     1873.000       40.999       59.001        0.339       99.661   2.0102E-01   1.7210E-01   2.0896E-01
     1873.000       41.107       58.893        0.340       99.660   2.0232E-01   1.7146E-01   2.0874E-01
     1873.000       41.214       58.786        0.341       99.659   2.0362E-01   1.7082E-01   2.0852E-01
     1873.000       41.322       58.678        0.342       99.658   2.0492E-01   1.7019E-01   2.0830E-01
     1873.000       41.430       58.570        0.343       99.657   2.0622E-01   1.6956E-01   2.0807E-01
     1873.000       41.538       58.462        0.344       99.656   2.0752E-01   1.6894E-01   2.0785E-01
     1873.000       41.645       58.355        0.345       99.655   2.0883E-01   1.6832E-01   2.0762E-01
     1873.000       41.753       58.247        0.346       99.654   2.1013E-01   1.6770E-01   2.0739E-01
     1873.000       41.860       58.140        0.347       99.653   2.1144E-01   1.6709E-01   2.0716E-01
     1873.000       41.968       58.032        0.348       99.652   2.1274E-01   1.6648E-01   2.0692E-01
     1873.000       42.075       57.925        0.349       99.651   2.1405E-01   1.6588E-01   2.0669E-01
     1873.000       42.182       57.818        0.350       99.650   2.1536E-01   1.6528E-01   2.0645E-01
     1873.000       42.289       57.711        0.351       99.649   2.1667E-01   1.6468E-01   2.0622E-01
     1873.000       42.396       57.604        0.352       99.648   2.1798E-01   1.6409E-01   2.0598E-01
     1873.000       42.503       57.497        0.353       99.647   2.1929E-01   1.6350E-01   2.0573E-01
     1873.000       42.610       57.390        0.354       99.646   2.2061E-01   1.6292E-01   2.0549E-01
     1873.000       42.717       57.283        0.355       99.645   2.2192E-01   1.6234E-01   2.0525E-01
     1873.000       42.824       57.176        0.356       99.644   2.2323E-01   1.6176E-01   2.0500E-01
     1873.000       42.931       57.069        0.357       99.643   2.2455E-01   1.6119E-01   2.0475E-01
     1873.000       43.038       56.962        0.358       99.642   2.2587E-01   1.6062E-01   2.0450E-01
     1873.000       43.144       56.856        0.359       99.641   2.2718E-01   1.6006E-01   2.0425E-01
     1873.000       43.251       56.749        0.360       99.640   2.2850E-01   1.5950E-01   2.0400E-01
     1873.000       43.357       56.643        0.361       99.639   2.2982E-01   1.5894E-01   2.0375E-01
     1873.000       43.464       56.536        0.362       99.638   2.3114E-01   1.5839E-01   2.0349E-01
     1873.000       43.570       56.430        0.363       99.637   2.3246E-01   1.5784E-01   2.0323E-01
     1873.000       43.676       56.324        0.364       99.636   2.3378E-01   1.5729E-01   2.0298E-01
     1873.000       43.783       56.217        0.365       99.635   2.3510E-01   1.5675E-01   2.0272E-01
     1873.000       43.889       56.111        0.366       99.634   2.3643E-01   1.5621E-01   2.0245E-01
     1873.000       43.995       56.005        0.367       99.633   2.3775E-01   1.5567E-01   2.0219E-01
     1873.000       44.101       55.899        0.368       99.632   2.3907E-01   1.5514E-01   2.0193E-01
     1873.000       44.207       55.793        0.369       99.631   2.4040E-01   1.5461E-01   2.0166E-01
     1873.000       44.313       55.687        0.370       99.630   2.4172E-01   1.5408E-01   2.0140E-01
     1873.000       44.419       55.581        0.371       99.629   2.4305E-01   1.5356E-01   2.0113E-01
     1873.000       44.524       55.476        0.372       99.628   2.4437E-01   1.5304E-01   2.0086E-01
     1873.000       44.630       55.370        0.373       99.627   2.4570E-01   1.5252E-01   2.0059E-01
     1873.000       44.736       55.264        0.374       99.626   2.4703E-01   1.5201E-01   2.0032E-01
     1873.000       44.841       55.159        0.375       99.625   2.4836E-01   1.5150E-01   2.0005E-01
     1873.000       44.947       55.053        0.376       99.624   2.4969E-01   1.5099E-01   1.9977E-01
     1873.000       45.052       54.948        0.377       99.623   2.5102E-01   1.5049E-01   1.9950E-01
     1873.000       45.157       54.843        0.378       99.622   2.5235E-01   1.4999E-01   1.9922E-01
     1873.000       45.263       54.737        0.379       99.621   2.5368E-01   1.4949E-01   1.9894E-01
     1873.000       45.368       54.632        0.380       99.620   2.5501E-01   1.4899E-01   1.9867E-01
     1873.000       45.473       54.527        0.381       99.619   2.5634E-01   1.4850E-01   1.9839E-01
     1873.000       45.578       54.422        0.382       99.618   2.5767E-01   1.4801E-01   1.9810E-01
     1873.000       45.683       54.317        0.383       99.617   2.5900E-01   1.4753E-01   1.9782E-01
     1873.000       45.788       54.212        0.384       99.616   2.6034E-01   1.4704E-01   1.9754E-01
     1873.000       45.893       54.107        0.385       99.615   2.6167E-01   1.4656E-01   1.9726E-01
     1873.000       45.998       54.002        0.386       99.614   2.6300E-01   1.4609E-01   1.9697E-01
     1873.000       46.103       53.897        0.387       99.613   2.6434E-01   1.4561E-01   1.9668E-01
     1873.000       46.207       53.793        0.388       99.612   2.6567E-01   1.4514E-01   1.9640E-01
     1873.000       46.312       53.688        0.389       99.611   2.6701E-01   1.4467E-01   1.9611E-01
     1873.000       46.417       53.583        0.390       99.610   2.6834E-01   1.4420E-01   1.9582E-01
     1873.000       46.521       53.479        0.391       99.609   2.6968E-01   1.4374E-01   1.9553E-01
     1873.000       46.626       53.374        0.392       99.608   2.7101E-01   1.4328E-01   1.9524E-01
     1873.000       46.730       53.270        0.393       99.607   2.7235E-01   1.4282E-01   1.9494E-01
     1873.000       46.834       53.166        0.394       99.606   2.7369E-01   1.4236E-01   1.9465E-01
     1873.000       46.939       53.061        0.395       99.605   2.7502E-01   1.4191E-01   1.9436E-01
     1873.000       47.043       52.957        0.396       99.604   2.7636E-01   1.4145E-01   1.9406E-01
     1873.000       47.147       52.853        0.397       99.603   2.7770E-01   1.4101E-01   1.9376E-01
     1873.000       47.251       52.749        0.398       99.602   2.7903E-01   1.4056E-01   1.9347E-01
     1873.000       47.355       52.645        0.399       99.601   2.8037E-01   1.4012E-01   1.9317E-01
     1873.000       47.459       52.541        0.400       99.600   2.8171E-01   1.3967E-01   1.9287E-01
     1873.000       47.563       52.437        0.401       99.599   2.8305E-01   1.3924E-01   1.9257E-01
     1873.000       47.667       52.333        0.402       99.598   2.8439E-01   1.3880E-01   1.9227E-01
     1873.000       47.770       52.230        0.403       99.597   2.8573E-01   1.3836E-01   1.9197E-01
     1873.000       47.874       52.126        0.404       99.596   2.8707E-01   1.3793E-01   1.9167E-01
     1873.000       47.978       52.022        0.405       99.595   2.8841E-01   1.3750E-01   1.9136E-01
     1873.000       48.081       51.919        0.406       99.594   2.8974E-01   1.3708E-01   1.9106E-01
     1873.000       48.185       51.815        0.407       99.593   2.9108E-01   1.3665E-01   1.9075E-01
     1873.000       48.288       51.712        0.408       99.592   2.9242E-01   1.3623E-01   1.9045E-01
     1873.000       48.391       51.609        0.409       99.591   2.9376E-01   1.3581E-01   1.9014E-01
     1873.000       48.495       51.505        0.410       99.590   2.9511E-01   1.3539E-01   1.8983E-01
     1873.000       48.598       51.402        0.411       99.589   2.9645E-01   1.3497E-01   1.8953E-01
     1873.000       48.701       51.299        0.412       99.588   2.9779E-01   1.3456E-01   1.8922E-01
     1873.000       48.804       51.196        0.413       99.587   2.9913E-01   1.3415E-01   1.8891E-01
     1873.000       48.907       51.093        0.414       99.586   3.0047E-01   1.3374E-01   1.8860E-01
     1873.000       49.010       50.990        0.415       99.585   3.0181E-01   1.3333E-01   1.8829E-01
     1873.000       49.113       50.887        0.416       99.584   3.0315E-01   1.3293E-01   1.8797E-01
     1873.000       49.216       50.784        0.417       99.583   3.0449E-01   1.3252E-01   1.8766E-01
     1873.000       49.319       50.681        0.418       99.582   3.0583E-01   1.3212E-01   1.8735E-01
     1873.000       49.421       50.579        0.419       99.581   3.0717E-01   1.3172E-01   1.8703E-01
     1873.000       49.524       50.476        0.420       99.580   3.0851E-01   1.3132E-01   1.8672E-01
     1873.000       49.627       50.373        0.421       99.579   3.0985E-01   1.3093E-01   1.8640E-01
     1873.000       49.729       50.271        0.422       99.578   3.1120E-01   1.3054E-01   1.8609E-01
     1873.000       49.832       50.168        0.423       99.577   3.1254E-01   1.3014E-01   1.8577E-01
     1873.000       49.934       50.066        0.424       99.576   3.1388E-01   1.2976E-01   1.8545E-01
     1873.000       50.036       49.964        0.425       99.575   3.1522E-01   1.2937E-01   1.8514E-01
     1873.000       50.139       49.861        0.426       99.574   3.1656E-01   1.2898E-01   1.8482E-01
     1873.000       50.241       49.759        0.427       99.573   3.1790E-01   1.2860E-01   1.8450E-01
     1873.000       50.343       49.657        0.428       99.572   3.1924E-01   1.2822E-01   1.8418E-01
     1873.000       50.445       49.555        0.429       99.571   3.2059E-01   1.2784E-01   1.8386E-01
     1873.000       50.547       49.453        0.430       99.570   3.2193E-01   1.2746E-01   1.8354E-01
     1873.000       50.649       49.351        0.431       99.569   3.2327E-01   1.2708E-01   1.8322E-01
     1873.000       50.751       49.249        0.432       99.568   3.2461E-01   1.2671E-01   1.8289E-01
     1873.000       50.853       49.147        0.433       99.567   3.2595E-01   1.2634E-01   1.8257E-01
     1873.000       50.955       49.045        0.434       99.566   3.2729E-01   1.2596E-01   1.8225E-01
     1873.000       51.056       48.944        0.435       99.565   3.2863E-01   1.2560E-01   1.8192E-01
     1873.000       51.158       48.842        0.436       99.564   3.2997E-01   1.2523E-01   1.8160E-01
     1873.000       51.259       48.741        0.437       99.563   3.3131E-01   1.2486E-01   1.8127E-01
     1873.000       51.361       48.639        0.438       99.562   3.3266E-01   1.2450E-01   1.8095E-01
     1873.000       51.462       48.538        0.439       99.561   3.3400E-01   1.2414E-01   1.8062E-01
     1873.000       51.564       48.436        0.440       99.560   3.3534E-01   1.2378E-01   1.8029E-01
     1873.000       51.665       48.335        0.441       99.559   3.3668E-01   1.2342E-01   1.7997E-01
     1873.000       51.766       48.234        0.442       99.558   3.3802E-01   1.2306E-01   1.7964E-01
     1873.000       51.868       48.132        0.443       99.557   3.3936E-01   1.2270E-01   1.7931E-01
     1873.000       51.969       48.031        0.444       99.556   3.4070E-01   1.2235E-01   1.7898E-01
     1873.000       52.070       47.930        0.445       99.555   3.4204E-01   1.2200E-01   1.7865E-01
     1873.000       52.171       47.829        0.446       99.554   3.4338E-01   1.2165E-01   1.7832E-01
     1873.000       52.272       47.728        0.447       99.553   3.4472E-01   1.2130E-01   1.7799E-01
     1873.000       52.373       47.627        0.448       99.552   3.4606E-01   1.2095E-01   1.7766E-01
     1873.000       52.474       47.526        0.449       99.551   3.4740E-01   1.2060E-01   1.7733E-01
     1873.000       52.574       47.426        0.450       99.550   3.4874E-01   1.2026E-01   1.7700E-01
     1873.000       52.675       47.325        0.451       99.549   3.5008E-01   1.1992E-01   1.7667E-01
     1873.000       52.776       47.224        0.452       99.548   3.5141E-01   1.1958E-01   1.7634E-01
     1873.000       52.876       47.124        0.453       99.547   3.5275E-01   1.1924E-01   1.7600E-01
     1873.000       52.977       47.023        0.454       99.546   3.5409E-01   1.1890E-01   1.7567E-01
     1873.000       53.077       46.923        0.455       99.545   3.5543E-01   1.1856E-01   1.7533E-01
     1873.000       53.178       46.822        0.456       99.544   3.5677E-01   1.1823E-01   1.7500E-01
     1873.000       53.278       46.722        0.457       99.543   3.5811E-01   1.1789E-01   1.7467E-01
     1873.000       53.378       46.622        0.458       99.542   3.5945E-01   1.1756E-01   1.7433E-01
     1873.000       53.479       46.521        0.459       99.541   3.6078E-01   1.1723E-01   1.7400E-01
     1873.000       53.579       46.421        0.460       99.540   3.6212E-01   1.1690E-01   1.7366E-01
     1873.000       53.679       46.321        0.461       99.539   3.6346E-01   1.1657E-01   1.7332E-01
     1873.000       53.779       46.221        0.462       99.538   3.6480E-01   1.1624E-01   1.7299E-01
     1873.000       53.879       46.121        0.463       99.537   3.6613E-01   1.1592E-01   1.7265E-01
     1873.000       53.979       46.021        0.464       99.536   3.6747E-01   1.1559E-01   1.7231E-01
     1873.000       54.079       45.921        0.465       99.535   3.6881E-01   1.1527E-01   1.7197E-01
     1873.000       54.178       45.822        0.466       99.534   3.7014E-01   1.1495E-01   1.7164E-01
     1873.000       54.278       45.722        0.467       99.533   3.7148E-01   1.1463E-01   1.7130E-01
     1873.000       54.378       45.622        0.468       99.532   3.7281E-01   1.1431E-01   1.7096E-01
     1873.000       54.477       45.523        0.469       99.531   3.7415E-01   1.1399E-01   1.7062E-01
     1873.000       54.577       45.423        0.470       99.530   3.7548E-01   1.1368E-01   1.7028E-01
     1873.000       54.676       45.324        0.471       99.529   3.7682E-01   1.1336E-01   1.6994E-01
     1873.000       54.776       45.224        0.472       99.528   3.7815E-01   1.1305E-01   1.6960E-01
     1873.000       54.875       45.125        0.473       99.527   3.7949E-01   1.1274E-01   1.6926E-01
     1873.000       54.975       45.025        0.474       99.526   3.8082E-01   1.1242E-01   1.6892E-01
     1873.000       55.074       44.926        0.475       99.525   3.8216E-01   1.1212E-01   1.6858E-01
     1873.000       55.173       44.827        0.476       99.524   3.8349E-01   1.1181E-01   1.6823E-01
     1873.000       55.272       44.728        0.477       99.523   3.8482E-01   1.1150E-01   1.6789E-01
     1873.000       55.371       44.629        0.478       99.522   3.8616E-01   1.1119E-01   1.6755E-01
     1873.000       55.470       44.530        0.479       99.521   3.8749E-01   1.1089E-01   1.6721E-01
     1873.000       55.569       44.431        0.480       99.520   3.8882E-01   1.1058E-01   1.6686E-01
     1873.000       55.668       44.332        0.481       99.519   3.9015E-01   1.1028E-01   1.6652E-01
     1873.000       55.767       44.233        0.482       99.518   3.9149E-01   1.0998E-01   1.6618E-01
     1873.000       55.866       44.134        0.483       99.517   3.9282E-01   1.0968E-01   1.6583E-01
     1873.000       55.964       44.036        0.484       99.516   3.9415E-01   1.0938E-01   1.6549E-01
     1873.000       56.063       43.937        0.485       99.515   3.9548E-01   1.0908E-01   1.6514E-01
     1873.000       56.162       43.838        0.486       99.514   3.9681E-01   1.0879E-01   1.6480E-01
     1873.000       56.260       43.740        0.487       99.513   3.9814E-01   1.0849E-01   1.6446E-01
     1873.000       56.359       43.641        0.488       99.512   3.9947E-01   1.0820E-01   1.6411E-01
     1873.000       56.457       43.543        0.489       99.511   4.0080E-01   1.0790E-01   1.6377E-01
     1873.000       56.555       43.445        0.490       99.510   4.0213E-01   1.0761E-01   1.6342E-01
     1873.000       56.654       43.346        0.491       99.509   4.0346E-01   1.0732E-01   1.6307E-01
     1873.000       56.752       43.248        0.492       99.508   4.0478E-01   1.0703E-01   1.6273E-01
     1873.000       56.850       43.150        0.493       99.507   4.0611E-01   1.0674E-01   1.6238E-01
     1873.000       56.948       43.052        0.494       99.506   4.0744E-01   1.0645E-01   1.6203E-01
     1873.000       57.046       42.954        0.495       99.505   4.0877E-01   1.0617E-01   1.6169E-01
     1873.000       57.144       42.856        0.496       99.504   4.1009E-01   1.0588E-01   1.6134E-01
     1873.000       57.242       42.758        0.497       99.503   4.1142E-01   1.0560E-01   1.6099E-01
     1873.000       57.340       42.660        0.498       99.502   4.1275E-01   1.0531E-01   1.6065E-01
     1873.000       57.438       42.562        0.499       99.501   4.1407E-01   1.0503E-01   1.6030E-01
     1873.000       57.536       42.464        0.500       99.500   4.1540E-01   1.0475E-01   1.5995E-01
     1873.000       57.633       42.367        0.501       99.499   4.1672E-01   1.0447E-01   1.5960E-01
     1873.000       57.731       42.269        0.502       99.498   4.1805E-01   1.0419E-01   1.5925E-01
     1873.000       57.828       42.172        0.503       99.497   4.1937E-01   1.0391E-01   1.5890E-01
     1873.000       57.926       42.074        0.504       99.496   4.2070E-01   1.0363E-01   1.5856E-01
     1873.000       58.023       41.977        0.505       99.495   4.2202E-01   1.0335E-01   1.5821E-01
     1873.000       58.121       41.879        0.506       99.494   4.2335E-01   1.0308E-01   1.5786E-01
     1873.000       58.218       41.782        0.507       99.493   4.2467E-01   1.0280E-01   1.5751E-01
     1873.000       58.315       41.685        0.508       99.492   4.2599E-01   1.0253E-01   1.5716E-01
     1873.000       58.413       41.587        0.509       99.491   4.2731E-01   1.0226E-01   1.5681E-01
     1873.000       58.510       41.490        0.510       99.490   4.2863E-01   1.0199E-01   1.5646E-01
     1873.000       58.607       41.393        0.511       99.489   4.2995E-01   1.0172E-01   1.5611E-01
     1873.000       58.704       41.296        0.512       99.488   4.3127E-01   1.0145E-01   1.5576E-01
     1873.000       58.801       41.199        0.513       99.487   4.3260E-01   1.0118E-01   1.5541E-01
     1873.000       58.898       41.102        0.514       99.486   4.3392E-01   1.0091E-01   1.5506E-01
     1873.000       58.995       41.005        0.515       99.485   4.3524E-01   1.0064E-01   1.5471E-01
     1873.000       59.092       40.908        0.516       99.484   4.3655E-01   1.0038E-01   1.5436E-01
     1873.000       59.188       40.812        0.517       99.483   4.3787E-01   1.0011E-01   1.5400E-01
     1873.000       59.285       40.715        0.518       99.482   4.3919E-01   9.9846E-02   1.5365E-01
     1873.000       59.382       40.618        0.519       99.481   4.4051E-01   9.9582E-02   1.5330E-01
     1873.000       59.478       40.522        0.520       99.480   4.4183E-01   9.9320E-02   1.5295E-01
     1873.000       59.575       40.425        0.521       99.479   4.4315E-01   9.9058E-02   1.5260E-01
     1873.000       59.671       40.329        0.522       99.478   4.4446E-01   9.8797E-02   1.5225E-01
     1873.000       59.768       40.232        0.523       99.477   4.4578E-01   9.8537E-02   1.5189E-01
     1873.000       59.864       40.136        0.524       99.476   4.4709E-01   9.8277E-02   1.5154E-01
     1873.000       59.960       40.040        0.525       99.475   4.4841E-01   9.8019E-02   1.5119E-01
     1873.000       60.057       39.943        0.526       99.474   4.4973E-01   9.7761E-02   1.5084E-01
     1873.000       60.153       39.847        0.527       99.473   4.5104E-01   9.7504E-02   1.5048E-01
     1873.000       60.249       39.751        0.528       99.472   4.5236E-01   9.7248E-02   1.5013E-01
     1873.000       60.345       39.655        0.529       99.471   4.5367E-01   9.6993E-02   1.4978E-01
     1873.000       60.441       39.559        0.530       99.470   4.5498E-01   9.6739E-02   1.4943E-01
     1873.000       60.537       39.463        0.531       99.469   4.5629E-01   9.6486E-02   1.4907E-01
     1873.000       60.633       39.367        0.532       99.468   4.5760E-01   9.6234E-02   1.4872E-01
     1873.000       60.729       39.271        0.533       99.467   4.5891E-01   9.5982E-02   1.4837E-01
     1873.000       60.825       39.175        0.534       99.466   4.6023E-01   9.5731E-02   1.4801E-01
     1873.000       60.920       39.080        0.535       99.465   4.6154E-01   9.5481E-02   1.4766E-01
     1873.000       61.016       38.984        0.536       99.464   4.6285E-01   9.5231E-02   1.4731E-01
     1873.000       61.112       38.888        0.537       99.463   4.6416E-01   9.4982E-02   1.4695E-01
     1873.000       61.207       38.793        0.538       99.462   4.6547E-01   9.4734E-02   1.4660E-01
     1873.000       61.303       38.697        0.539       99.461   4.6678E-01   9.4487E-02   1.4624E-01
     1873.000       61.398       38.602        0.540       99.460   4.6808E-01   9.4241E-02   1.4589E-01
     1873.000       61.493       38.507        0.541       99.459   4.6939E-01   9.3995E-02   1.4554E-01
     1873.000       61.589       38.411        0.542       99.458   4.7070E-01   9.3750E-02   1.4518E-01
     1873.000       61.684       38.316        0.543       99.457   4.7201E-01   9.3506E-02   1.4483E-01
     1873.000       61.779       38.221        0.544       99.456   4.7331E-01   9.3262E-02   1.4447E-01
     1873.000       61.874       38.126        0.545       99.455   4.7462E-01   9.3020E-02   1.4412E-01
     1873.000       61.970       38.030        0.546       99.454   4.7592E-01   9.2778E-02   1.4376E-01
     1873.000       62.065       37.935        0.547       99.453   4.7723E-01   9.2536E-02   1.4341E-01
     1873.000       62.160       37.840        0.548       99.452   4.7854E-01   9.2295E-02   1.4306E-01
     1873.000       62.255       37.745        0.549       99.451   4.7984E-01   9.2056E-02   1.4270E-01
     1873.000       62.349       37.651        0.550       99.450   4.8115E-01   9.1816E-02   1.4235E-01
     1873.000       62.444       37.556        0.551       99.449   4.8245E-01   9.1578E-02   1.4199E-01
     1873.000       62.539       37.461        0.552       99.448   4.8375E-01   9.1340E-02   1.4164E-01
     1873.000       62.634       37.366        0.553       99.447   4.8505E-01   9.1103E-02   1.4128E-01
     1873.000       62.728       37.272        0.554       99.446   4.8636E-01   9.0867E-02   1.4093E-01
     1873.000       62.823       37.177        0.555       99.445   4.8766E-01   9.0631E-02   1.4057E-01
     1873.000       62.917       37.083        0.556       99.444   4.8895E-01   9.0397E-02   1.4022E-01
     1873.000       63.012       36.988        0.557       99.443   4.9025E-01   9.0162E-02   1.3986E-01
     1873.000       63.106       36.894        0.558       99.442   4.9155E-01   8.9929E-02   1.3951E-01
     1873.000       63.201       36.799        0.559       99.441   4.9285E-01   8.9696E-02   1.3915E-01
     1873.000       63.295       36.705        0.560       99.440   4.9415E-01   8.9463E-02   1.3879E-01
     1873.000       63.389       36.611        0.561       99.439   4.9545E-01   8.9231E-02   1.3844E-01
     1873.000       63.484       36.516        0.562       99.438   4.9674E-01   8.9000E-02   1.3808E-01
     1873.000       63.578       36.422        0.563       99.437   4.9804E-01   8.8770E-02   1.3773E-01
     1873.000       63.672       36.328        0.564       99.436   4.9934E-01   8.8540E-02   1.3737E-01
     1873.000       63.766       36.234        0.565       99.435   5.0063E-01   8.8311E-02   1.3702E-01
     1873.000       63.860       36.140        0.566       99.434   5.0193E-01   8.8082E-02   1.3666E-01
     1873.000       63.954       36.046        0.567       99.433   5.0323E-01   8.7854E-02   1.3631E-01
     1873.000       64.048       35.952        0.568       99.432   5.0452E-01   8.7627E-02   1.3595E-01
     1873.000       64.141       35.859        0.569       99.431   5.0581E-01   8.7400E-02   1.3559E-01
     1873.000       64.235       35.765        0.570       99.430   5.0711E-01   8.7174E-02   1.3524E-01
     1873.000       64.329       35.671        0.571       99.429   5.0840E-01   8.6949E-02   1.3488E-01
     1873.000       64.423       35.577        0.572       99.428   5.0970E-01   8.6723E-02   1.3453E-01
     1873.000       64.516       35.484        0.573       99.427   5.1099E-01   8.6499E-02   1.3417E-01
     1873.000       64.610       35.390        0.574       99.426   5.1228E-01   8.6275E-02   1.3381E-01
     1873.000       64.703       35.297        0.575       99.425   5.1357E-01   8.6052E-02   1.3346E-01
     1873.000       64.797       35.203        0.576       99.424   5.1486E-01   8.5829E-02   1.3310E-01
     1873.000       64.890       35.110        0.577       99.423   5.1615E-01   8.5608E-02   1.3275E-01
     1873.000       64.983       35.017        0.578       99.422   5.1744E-01   8.5386E-02   1.3239E-01
     1873.000       65.077       34.923        0.579       99.421   5.1873E-01   8.5165E-02   1.3204E-01
     1873.000       65.170       34.830        0.580       99.420   5.2002E-01   8.4945E-02   1.3168E-01
     1873.000       65.263       34.737        0.581       99.419   5.2130E-01   8.4725E-02   1.3132E-01
     1873.000       65.356       34.644        0.582       99.418   5.2258E-01   8.4507E-02   1.3097E-01
     1873.000       65.449       34.551        0.583       99.417   5.2387E-01   8.4288E-02   1.3061E-01
     1873.000       65.542       34.458        0.584       99.416   5.2516E-01   8.4070E-02   1.3026E-01
     1873.000       65.635       34.365        0.585       99.415   5.2644E-01   8.3853E-02   1.2990E-01
     1873.000       65.728       34.272        0.586       99.414   5.2773E-01   8.3636E-02   1.2954E-01
     1873.000       65.821       34.179        0.587       99.413   5.2901E-01   8.3419E-02   1.2919E-01
     1873.000       65.913       34.087        0.588       99.412   5.3029E-01   8.3203E-02   1.2883E-01
     1873.000       66.006       33.994        0.589       99.411   5.3158E-01   8.2988E-02   1.2848E-01
     1873.000       66.099       33.901        0.590       99.410   5.3286E-01   8.2773E-02   1.2812E-01
     1873.000       66.191       33.809        0.591       99.409   5.3414E-01   8.2559E-02   1.2776E-01
     1873.000       66.284       33.716        0.592       99.408   5.3542E-01   8.2345E-02   1.2741E-01
     1873.000       66.376       33.624        0.593       99.407   5.3670E-01   8.2132E-02   1.2705E-01
     1873.000       66.469       33.531        0.594       99.406   5.3799E-01   8.1919E-02   1.2670E-01
     1873.000       66.561       33.439        0.595       99.405   5.3926E-01   8.1707E-02   1.2634E-01
     1873.000       66.654       33.346        0.596       99.404   5.4054E-01   8.1495E-02   1.2599E-01
     1873.000       66.746       33.254        0.597       99.403   5.4182E-01   8.1284E-02   1.2563E-01
     1873.000       66.838       33.162        0.598       99.402   5.4310E-01   8.1073E-02   1.2527E-01
     1873.000       66.930       33.070        0.599       99.401   5.4438E-01   8.0862E-02   1.2492E-01
     1873.000       67.022       32.978        0.600       99.400   5.4566E-01   8.0653E-02   1.2456E-01
     1873.000       67.115       32.885        0.601       99.399   5.4694E-01   8.0443E-02   1.2421E-01
     1873.000       67.207       32.793        0.602       99.398   5.4821E-01   8.0235E-02   1.2385E-01
     1873.000       67.298       32.702        0.603       99.397   5.4949E-01   8.0026E-02   1.2349E-01
     1873.000       67.390       32.610        0.604       99.396   5.5076E-01   7.9819E-02   1.2314E-01
     1873.000       67.482       32.518        0.605       99.395   5.5204E-01   7.9611E-02   1.2278E-01
     1873.000       67.574       32.426        0.606       99.394   5.5331E-01   7.9404E-02   1.2243E-01
     1873.000       67.666       32.334        0.607       99.393   5.5458E-01   7.9198E-02   1.2207E-01
     1873.000       67.757       32.243        0.608       99.392   5.5585E-01   7.8992E-02   1.2172E-01
     1873.000       67.849       32.151        0.609       99.391   5.5713E-01   7.8786E-02   1.2136E-01
     1873.000       67.941       32.059        0.610       99.390   5.5840E-01   7.8581E-02   1.2101E-01
     1873.000       68.032       31.968        0.611       99.389   5.5966E-01   7.8377E-02   1.2065E-01
     1873.000       68.124       31.876        0.612       99.388   5.6093E-01   7.8173E-02   1.2030E-01
     1873.000       68.215       31.785        0.613       99.387   5.6220E-01   7.7970E-02   1.1994E-01
     1873.000       68.306       31.694        0.614       99.386   5.6347E-01   7.7766E-02   1.1959E-01
     1873.000       68.398       31.602        0.615       99.385   5.6474E-01   7.7563E-02   1.1923E-01
     1873.000       68.489       31.511        0.616       99.384   5.6601E-01   7.7361E-02   1.1888E-01
     1873.000       68.580       31.420        0.617       99.383   5.6727E-01   7.7159E-02   1.1852E-01
     1873.000       68.671       31.329        0.618       99.382   5.6854E-01   7.6958E-02   1.1817E-01
     1873.000       68.763       31.237        0.619       99.381   5.6981E-01   7.6756E-02   1.1781E-01
     1873.000       68.854       31.146        0.620       99.380   5.7107E-01   7.6556E-02   1.1746E-01
     1873.000       68.945       31.055        0.621       99.379   5.7234E-01   7.6355E-02   1.1710E-01
     1873.000       69.036       30.964        0.622       99.378   5.7360E-01   7.6156E-02   1.1675E-01
     1873.000       69.126       30.874        0.623       99.377   5.7487E-01   7.5956E-02   1.1639E-01
     1873.000       69.217       30.783        0.624       99.376   5.7613E-01   7.5757E-02   1.1604E-01
     1873.000       69.308       30.692        0.625       99.375   5.7740E-01   7.5558E-02   1.1568E-01
     1873.000       69.399       30.601        0.626       99.374   5.7866E-01   7.5360E-02   1.1533E-01
     1873.000       69.489       30.511        0.627       99.373   5.7992E-01   7.5162E-02   1.1497E-01
     1873.000       69.580       30.420        0.628       99.372   5.8118E-01   7.4965E-02   1.1462E-01
     1873.000       69.671       30.329        0.629       99.371   5.8244E-01   7.4768E-02   1.1426E-01
     1873.000       69.761       30.239        0.630       99.370   5.8370E-01   7.4571E-02   1.1391E-01
     1873.000       69.852       30.148        0.631       99.369   5.8496E-01   7.4375E-02   1.1355E-01
     1873.000       69.942       30.058        0.632       99.368   5.8622E-01   7.4179E-02   1.1320E-01
     1873.000       70.032       29.968        0.633       99.367   5.8748E-01   7.3984E-02   1.1285E-01
     1873.000       70.123       29.877        0.634       99.366   5.8873E-01   7.3789E-02   1.1249E-01
     1873.000       70.213       29.787        0.635       99.365   5.8999E-01   7.3594E-02   1.1214E-01
     1873.000       70.303       29.697        0.636       99.364   5.9125E-01   7.3400E-02   1.1178E-01
     1873.000       70.393       29.607        0.637       99.363   5.9250E-01   7.3206E-02   1.1143E-01
     1873.000       70.483       29.517        0.638       99.362   5.9376E-01   7.3012E-02   1.1108E-01
     1873.000       70.574       29.426        0.639       99.361   5.9501E-01   7.2819E-02   1.1072E-01
     1873.000       70.664       29.336        0.640       99.360   5.9626E-01   7.2626E-02   1.1037E-01
     1873.000       70.753       29.247        0.641       99.359   5.9752E-01   7.2434E-02   1.1002E-01
     1873.000       70.843       29.157        0.642       99.358   5.9876E-01   7.2242E-02   1.0966E-01
     1873.000       70.933       29.067        0.643       99.357   6.0001E-01   7.2050E-02   1.0931E-01
     1873.000       71.023       28.977        0.644       99.356   6.0127E-01   7.1859E-02   1.0896E-01
     1873.000       71.113       28.887        0.645       99.355   6.0252E-01   7.1668E-02   1.0860E-01
     1873.000       71.202       28.798        0.646       99.354   6.0377E-01   7.1477E-02   1.0825E-01
     1873.000       71.292       28.708        0.647       99.353   6.0502E-01   7.1287E-02   1.0790E-01
     1873.000       71.382       28.618        0.648       99.352   6.0626E-01   7.1097E-02   1.0754E-01
     1873.000       71.471       28.529        0.649       99.351   6.0751E-01   7.0907E-02   1.0719E-01
     1873.000       71.561       28.439        0.650       99.350   6.0876E-01   7.0718E-02   1.0684E-01
     1873.000       71.650       28.350        0.651       99.349   6.1001E-01   7.0529E-02   1.0649E-01
     1873.000       71.740       28.260        0.652       99.348   6.1125E-01   7.0340E-02   1.0613E-01
     1873.000       71.829       28.171        0.653       99.347   6.1250E-01   7.0152E-02   1.0578E-01
     1873.000       71.918       28.082        0.654       99.346   6.1375E-01   6.9964E-02   1.0543E-01
     1873.000       72.007       27.993        0.655       99.345   6.1499E-01   6.9776E-02   1.0508E-01
     1873.000       72.097       27.903        0.656       99.344   6.1624E-01   6.9588E-02   1.0472E-01
     1873.000       72.186       27.814        0.657       99.343   6.1748E-01   6.9401E-02   1.0437E-01
     1873.000       72.275       27.725        0.658       99.342   6.1872E-01   6.9214E-02   1.0402E-01
     1873.000       72.364       27.636        0.659       99.341   6.1997E-01   6.9028E-02   1.0367E-01
     1873.000       72.453       27.547        0.660       99.340   6.2121E-01   6.8842E-02   1.0332E-01
     1873.000       72.542       27.458        0.661       99.339   6.2245E-01   6.8656E-02   1.0296E-01
     1873.000       72.630       27.370        0.662       99.338   6.2369E-01   6.8471E-02   1.0261E-01
     1873.000       72.719       27.281        0.663       99.337   6.2493E-01   6.8285E-02   1.0226E-01
     1873.000       72.808       27.192        0.664       99.336   6.2617E-01   6.8100E-02   1.0191E-01
     1873.000       72.897       27.103        0.665       99.335   6.2741E-01   6.7916E-02   1.0156E-01
     1873.000       72.985       27.015        0.666       99.334   6.2864E-01   6.7732E-02   1.0121E-01
     1873.000       73.074       26.926        0.667       99.333   6.2988E-01   6.7547E-02   1.0086E-01
     1873.000       73.163       26.837        0.668       99.332   6.3112E-01   6.7364E-02   1.0051E-01
     1873.000       73.251       26.749        0.669       99.331   6.3235E-01   6.7180E-02   1.0015E-01
     1873.000       73.340       26.660        0.670       99.330   6.3359E-01   6.6997E-02   9.9804E-02
     1873.000       73.428       26.572        0.671       99.329   6.3482E-01   6.6814E-02   9.9453E-02
     1873.000       73.516       26.484        0.672       99.328   6.3606E-01   6.6632E-02   9.9103E-02
     1873.000       73.605       26.395        0.673       99.327   6.3729E-01   6.6449E-02   9.8752E-02
     1873.000       73.693       26.307        0.674       99.326   6.3852E-01   6.6267E-02   9.8402E-02
     1873.000       73.781       26.219        0.675       99.325   6.3975E-01   6.6086E-02   9.8053E-02
     1873.000       73.869       26.131        0.676       99.324   6.4098E-01   6.5905E-02   9.7702E-02
     1873.000       73.957       26.043        0.677       99.323   6.4221E-01   6.5724E-02   9.7353E-02
     1873.000       74.045       25.955        0.678       99.322   6.4344E-01   6.5543E-02   9.7003E-02
     1873.000       74.133       25.867        0.679       99.321   6.4467E-01   6.5362E-02   9.6653E-02
     1873.000       74.221       25.779        0.680       99.320   6.4590E-01   6.5182E-02   9.6303E-02
     1873.000       74.309       25.691        0.681       99.319   6.4713E-01   6.5001E-02   9.5954E-02
     1873.000       74.397       25.603        0.682       99.318   6.4836E-01   6.4821E-02   9.5605E-02
     1873.000       74.485       25.515        0.683       99.317   6.4959E-01   6.4642E-02   9.5255E-02
     1873.000       74.573       25.427        0.684       99.316   6.5081E-01   6.4462E-02   9.4906E-02
     1873.000       74.660       25.340        0.685       99.315   6.5204E-01   6.4283E-02   9.4557E-02
     1873.000       74.748       25.252        0.686       99.314   6.5326E-01   6.4104E-02   9.4209E-02
     1873.000       74.836       25.164        0.687       99.313   6.5449E-01   6.3925E-02   9.3859E-02
     1873.000       74.923       25.077        0.688       99.312   6.5572E-01   6.3747E-02   9.3511E-02
     1873.000       75.011       24.989        0.689       99.311   6.5694E-01   6.3569E-02   9.3162E-02
     1873.000       75.098       24.902        0.690       99.310   6.5816E-01   6.3391E-02   9.2814E-02
     1873.000       75.186       24.814        0.691       99.309   6.5939E-01   6.3213E-02   9.2466E-02
     1873.000       75.273       24.727        0.692       99.308   6.6061E-01   6.3036E-02   9.2118E-02
     1873.000       75.360       24.640        0.693       99.307   6.6183E-01   6.2859E-02   9.1770E-02
     1873.000       75.447       24.553        0.694       99.306   6.6305E-01   6.2682E-02   9.1422E-02
     1873.000       75.535       24.465        0.695       99.305   6.6427E-01   6.2505E-02   9.1075E-02
     1873.000       75.622       24.378        0.696       99.304   6.6549E-01   6.2328E-02   9.0727E-02
     1873.000       75.709       24.291        0.697       99.303   6.6671E-01   6.2152E-02   9.0380E-02
     1873.000       75.796       24.204        0.698       99.302   6.6793E-01   6.1976E-02   9.0032E-02
     1873.000       75.883       24.117        0.699       99.301   6.6914E-01   6.1800E-02   8.9685E-02
     1873.000       75.970       24.030        0.700       99.300   6.7036E-01   6.1624E-02   8.9338E-02
     1873.000       76.057       23.943        0.701       99.299   6.7157E-01   6.1449E-02   8.8992E-02
     1873.000       76.144       23.856        0.702       99.298   6.7279E-01   6.1274E-02   8.8645E-02
     1873.000       76.231       23.769        0.703       99.297   6.7400E-01   6.1099E-02   8.8298E-02
     1873.000       76.317       23.683        0.704       99.296   6.7522E-01   6.0924E-02   8.7952E-02
     1873.000       76.404       23.596        0.705       99.295   6.7643E-01   6.0749E-02   8.7606E-02
     1873.000       76.491       23.509        0.706       99.294   6.7765E-01   6.0575E-02   8.7260E-02
     1873.000       76.577       23.423        0.707       99.293   6.7886E-01   6.0401E-02   8.6914E-02
     1873.000       76.664       23.336        0.708       99.292   6.8007E-01   6.0227E-02   8.6568E-02
     1873.000       76.750       23.250        0.709       99.291   6.8127E-01   6.0053E-02   8.6223E-02
     1873.000       76.837       23.163        0.710       99.290   6.8248E-01   5.9880E-02   8.5877E-02
     1873.000       76.923       23.077        0.711       99.289   6.8369E-01   5.9706E-02   8.5532E-02
     1873.000       77.010       22.990        0.712       99.288   6.8490E-01   5.9533E-02   8.5187E-02
     1873.000       77.096       22.904        0.713       99.287   6.8611E-01   5.9360E-02   8.4841E-02
     1873.000       77.182       22.818        0.714       99.286   6.8732E-01   5.9187E-02   8.4497E-02
     1873.000       77.268       22.732        0.715       99.285   6.8852E-01   5.9015E-02   8.4152E-02
     1873.000       77.355       22.645        0.716       99.284   6.8973E-01   5.8842E-02   8.3807E-02
     1873.000       77.441       22.559        0.717       99.283   6.9094E-01   5.8670E-02   8.3463E-02
     1873.000       77.527       22.473        0.718       99.282   6.9214E-01   5.8498E-02   8.3118E-02
     1873.000       77.613       22.387        0.719       99.281   6.9335E-01   5.8326E-02   8.2774E-02
     1873.000       77.699       22.301        0.720       99.280   6.9456E-01   5.8153E-02   8.2430E-02
     1873.000       77.785       22.215        0.721       99.279   6.9576E-01   5.7982E-02   8.2086E-02
     1873.000       77.871       22.129        0.722       99.278   6.9696E-01   5.7810E-02   8.1742E-02
     1873.000       77.956       22.044        0.723       99.277   6.9816E-01   5.7639E-02   8.1399E-02
     1873.000       78.042       21.958        0.724       99.276   6.9936E-01   5.7468E-02   8.1055E-02
     1873.000       78.128       21.872        0.725       99.275   7.0056E-01   5.7297E-02   8.0712E-02
     1873.000       78.214       21.786        0.726       99.274   7.0176E-01   5.7126E-02   8.0369E-02
     1873.000       78.299       21.701        0.727       99.273   7.0296E-01   5.6956E-02   8.0026E-02
     1873.000       78.385       21.615        0.728       99.272   7.0416E-01   5.6785E-02   7.9684E-02
     1873.000       78.470       21.530        0.729       99.271   7.0536E-01   5.6615E-02   7.9341E-02
     1873.000       78.556       21.444        0.730       99.270   7.0656E-01   5.6445E-02   7.8999E-02
     1873.000       78.641       21.359        0.731       99.269   7.0775E-01   5.6275E-02   7.8656E-02
     1873.000       78.727       21.273        0.732       99.268   7.0895E-01   5.6105E-02   7.8314E-02
     1873.000       78.812       21.188        0.733       99.267   7.1015E-01   5.5935E-02   7.7973E-02
     1873.000       78.897       21.103        0.734       99.266   7.1134E-01   5.5765E-02   7.7631E-02
     1873.000       78.983       21.017        0.735       99.265   7.1253E-01   5.5596E-02   7.7289E-02
     1873.000       79.068       20.932        0.736       99.264   7.1373E-01   5.5427E-02   7.6948E-02
     1873.000       79.153       20.847        0.737       99.263   7.1492E-01   5.5258E-02   7.6607E-02
     1873.000       79.238       20.762        0.738       99.262   7.1611E-01   5.5089E-02   7.6266E-02
     1873.000       79.323       20.677        0.739       99.261   7.1730E-01   5.4920E-02   7.5925E-02
     1873.000       79.408       20.592        0.740       99.260   7.1850E-01   5.4751E-02   7.5584E-02
     1873.000       79.493       20.507        0.741       99.259   7.1969E-01   5.4582E-02   7.5244E-02
     1873.000       79.578       20.422        0.742       99.258   7.2087E-01   5.4414E-02   7.4903E-02
     1873.000       79.663       20.337        0.743       99.257   7.2206E-01   5.4245E-02   7.4563E-02
     1873.000       79.748       20.252        0.744       99.256   7.2325E-01   5.4077E-02   7.4223E-02
     1873.000       79.832       20.168        0.745       99.255   7.2444E-01   5.3909E-02   7.3883E-02
     1873.000       79.917       20.083        0.746       99.254   7.2562E-01   5.3741E-02   7.3544E-02
     1873.000       80.002       19.998        0.747       99.253   7.2680E-01   5.3573E-02   7.3205E-02
     1873.000       80.086       19.914        0.748       99.252   7.2799E-01   5.3405E-02   7.2866E-02
     1873.000       80.171       19.829        0.749       99.251   7.2918E-01   5.3238E-02   7.2527E-02
     1873.000       80.256       19.744        0.750       99.250   7.3036E-01   5.3070E-02   7.2188E-02
     1873.000       80.340       19.660        0.751       99.249   7.3154E-01   5.2903E-02   7.1849E-02
     1873.000       80.425       19.575        0.752       99.248   7.3273E-01   5.2735E-02   7.1511E-02
     1873.000       80.509       19.491        0.753       99.247   7.3391E-01   5.2568E-02   7.1172E-02
     1873.000       80.593       19.407        0.754       99.246   7.3509E-01   5.2401E-02   7.0834E-02
     1873.000       80.678       19.322        0.755       99.245   7.3628E-01   5.2233E-02   7.0496E-02
     1873.000       80.762       19.238        0.756       99.244   7.3746E-01   5.2066E-02   7.0158E-02
     1873.000       80.846       19.154        0.757       99.243   7.3864E-01   5.1899E-02   6.9820E-02
     1873.000       80.930       19.070        0.758       99.242   7.3982E-01   5.1733E-02   6.9483E-02
     1873.000       81.014       18.986        0.759       99.241   7.4100E-01   5.1566E-02   6.9146E-02
     1873.000       81.098       18.902        0.760       99.240   7.4217E-01   5.1399E-02   6.8809E-02
     1873.000       81.182       18.818        0.761       99.239   7.4335E-01   5.1233E-02   6.8472E-02
     1873.000       81.266       18.734        0.762       99.238   7.4453E-01   5.1066E-02   6.8135E-02
     1873.000       81.350       18.650        0.763       99.237   7.4570E-01   5.0900E-02   6.7799E-02
     1873.000       81.434       18.566        0.764       99.236   7.4688E-01   5.0733E-02   6.7463E-02
     1873.000       81.518       18.482        0.765       99.235   7.4805E-01   5.0567E-02   6.7127E-02
     1873.000       81.602       18.398        0.766       99.234   7.4922E-01   5.0401E-02   6.6791E-02
     1873.000       81.685       18.315        0.767       99.233   7.5040E-01   5.0235E-02   6.6455E-02
     1873.000       81.769       18.231        0.768       99.232   7.5157E-01   5.0069E-02   6.6120E-02
     1873.000       81.853       18.147        0.769       99.231   7.5274E-01   4.9903E-02   6.5785E-02
     1873.000       81.936       18.064        0.770       99.230   7.5391E-01   4.9737E-02   6.5450E-02
     1873.000       82.020       17.980        0.771       99.229   7.5508E-01   4.9571E-02   6.5115E-02
     1873.000       82.103       17.897        0.772       99.228   7.5625E-01   4.9405E-02   6.4780E-02
     1873.000       82.187       17.813        0.773       99.227   7.5742E-01   4.9240E-02   6.4446E-02
     1873.000       82.270       17.730        0.774       99.226   7.5859E-01   4.9074E-02   6.4111E-02
     1873.000       82.354       17.646        0.775       99.225   7.5976E-01   4.8908E-02   6.3777E-02
     1873.000       82.437       17.563        0.776       99.224   7.6092E-01   4.8743E-02   6.3444E-02
     1873.000       82.520       17.480        0.777       99.223   7.6209E-01   4.8577E-02   6.3110E-02
     1873.000       82.604       17.396        0.778       99.222   7.6326E-01   4.8412E-02   6.2777E-02
     1873.000       82.687       17.313        0.779       99.221   7.6442E-01   4.8246E-02   6.2443E-02
     1873.000       82.770       17.230        0.780       99.220   7.6559E-01   4.8081E-02   6.2111E-02
     1873.000       82.853       17.147        0.781       99.219   7.6675E-01   4.7916E-02   6.1778E-02
     1873.000       82.936       17.064        0.782       99.218   7.6790E-01   4.7751E-02   6.1446E-02
     1873.000       83.019       16.981        0.783       99.217   7.6907E-01   4.7585E-02   6.1113E-02
     1873.000       83.102       16.898        0.784       99.216   7.7023E-01   4.7420E-02   6.0781E-02
     1873.000       83.185       16.815        0.785       99.215   7.7139E-01   4.7255E-02   6.0449E-02
     1873.000       83.268       16.732        0.786       99.214   7.7255E-01   4.7090E-02   6.0118E-02
     1873.000       83.350       16.650        0.787       99.213   7.7371E-01   4.6924E-02   5.9786E-02
     1873.000       83.433       16.567        0.788       99.212   7.7487E-01   4.6759E-02   5.9455E-02
     1873.000       83.516       16.484        0.789       99.211   7.7603E-01   4.6594E-02   5.9124E-02
     1873.000       83.599       16.401        0.790       99.210   7.7719E-01   4.6429E-02   5.8793E-02
     1873.000       83.681       16.319        0.791       99.209   7.7835E-01   4.6263E-02   5.8462E-02
     1873.000       83.764       16.236        0.792       99.208   7.7950E-01   4.6098E-02   5.8132E-02
     1873.000       83.846       16.154        0.793       99.207   7.8066E-01   4.5933E-02   5.7802E-02
     1873.000       83.929       16.071        0.794       99.206   7.8181E-01   4.5768E-02   5.7472E-02
     1873.000       84.011       15.989        0.795       99.205   7.8297E-01   4.5603E-02   5.7142E-02
     1873.000       84.094       15.906        0.796       99.204   7.8412E-01   4.5438E-02   5.6813E-02
     1873.000       84.176       15.824        0.797       99.203   7.8527E-01   4.5273E-02   5.6484E-02
     1873.000       84.258       15.742        0.798       99.202   7.8643E-01   4.5108E-02   5.6155E-02
     1873.000       84.341       15.659        0.799       99.201   7.8758E-01   4.4943E-02   5.5826E-02
     1873.000       84.423       15.577        0.800       99.200   7.8873E-01   4.4777E-02   5.5497E-02
     1873.000       84.505       15.495        0.801       99.199   7.8988E-01   4.4612E-02   5.5169E-02
     1873.000       84.587       15.413        0.802       99.198   7.9103E-01   4.4447E-02   5.4841E-02
     1873.000       84.669       15.331        0.803       99.197   7.9218E-01   4.4282E-02   5.4513E-02
     1873.000       84.751       15.249        0.804       99.196   7.9332E-01   4.4117E-02   5.4186E-02
     1873.000       84.833       15.167        0.805       99.195   7.9447E-01   4.3952E-02   5.3858E-02
     1873.000       84.915       15.085        0.806       99.194   7.9562E-01   4.3786E-02   5.3531E-02
     1873.000       84.997       15.003        0.807       99.193   7.9676E-01   4.3621E-02   5.3204E-02
     1873.000       85.079       14.921        0.808       99.192   7.9791E-01   4.3456E-02   5.2878E-02
     1873.000       85.161       14.839        0.809       99.191   7.9905E-01   4.3290E-02   5.2551E-02
     1873.000       85.242       14.758        0.810       99.190   8.0020E-01   4.3125E-02   5.2225E-02
     1873.000       85.324       14.676        0.811       99.189   8.0134E-01   4.2960E-02   5.1899E-02
     1873.000       85.406       14.594        0.812       99.188   8.0248E-01   4.2794E-02   5.1574E-02
     1873.000       85.487       14.513        0.813       99.187   8.0362E-01   4.2629E-02   5.1248E-02
     1873.000       85.569       14.431        0.814       99.186   8.0477E-01   4.2463E-02   5.0923E-02
     1873.000       85.651       14.349        0.815       99.185   8.0591E-01   4.2297E-02   5.0598E-02
     1873.000       85.732       14.268        0.816       99.184   8.0705E-01   4.2132E-02   5.0274E-02
     1873.000       85.814       14.186        0.817       99.183   8.0818E-01   4.1966E-02   4.9949E-02
     1873.000       85.895       14.105        0.818       99.182   8.0931E-01   4.1801E-02   4.9626E-02
     1873.000       85.976       14.024        0.819       99.181   8.1045E-01   4.1635E-02   4.9302E-02
     1873.000       86.058       13.942        0.820       99.180   8.1159E-01   4.1469E-02   4.8978E-02
     1873.000       86.139       13.861        0.821       99.179   8.1272E-01   4.1303E-02   4.8655E-02
     1873.000       86.220       13.780        0.822       99.178   8.1386E-01   4.1137E-02   4.8332E-02
     1873.000       86.301       13.699        0.823       99.177   8.1499E-01   4.0970E-02   4.8009E-02
     1873.000       86.382       13.618        0.824       99.176   8.1614E-01   4.0804E-02   4.7686E-02
     1873.000       86.464       13.536        0.825       99.175   8.1727E-01   4.0638E-02   4.7364E-02
     1873.000       86.545       13.455        0.826       99.174   8.1840E-01   4.0471E-02   4.7042E-02
     1873.000       86.626       13.374        0.827       99.173   8.1953E-01   4.0305E-02   4.6720E-02
     1873.000       86.707       13.293        0.828       99.172   8.2066E-01   4.0138E-02   4.6399E-02
     1873.000       86.787       13.213        0.829       99.171   8.2180E-01   3.9971E-02   4.6077E-02
     1873.000       86.868       13.132        0.830       99.170   8.2292E-01   3.9805E-02   4.5756E-02
     1873.000       86.949       13.051        0.831       99.169   8.2405E-01   3.9638E-02   4.5436E-02
     1873.000       87.030       12.970        0.832       99.168   8.2518E-01   3.9471E-02   4.5115E-02
     1873.000       87.111       12.889        0.833       99.167   8.2631E-01   3.9304E-02   4.4795E-02
     1873.000       87.191       12.809        0.834       99.166   8.2744E-01   3.9136E-02   4.4475E-02
     1873.000       87.272       12.728        0.835       99.165   8.2856E-01   3.8969E-02   4.4156E-02
     1873.000       87.353       12.647        0.836       99.164   8.2969E-01   3.8801E-02   4.3837E-02
     1873.000       87.433       12.567        0.837       99.163   8.3081E-01   3.8634E-02   4.3518E-02
     1873.000       87.514       12.486        0.838       99.162   8.3194E-01   3.8466E-02   4.3199E-02
     1873.000       87.594       12.406        0.839       99.161   8.3306E-01   3.8298E-02   4.2880E-02
     1873.000       87.675       12.325        0.840       99.160   8.3418E-01   3.8130E-02   4.2562E-02
     1873.000       87.755       12.245        0.841       99.159   8.3530E-01   3.7962E-02   4.2245E-02
     1873.000       87.835       12.165        0.842       99.158   8.3642E-01   3.7794E-02   4.1927E-02
     1873.000       87.916       12.084        0.843       99.157   8.3754E-01   3.7625E-02   4.1610E-02
     1873.000       87.996       12.004        0.844       99.156   8.3866E-01   3.7457E-02   4.1293E-02
     1873.000       88.076       11.924        0.845       99.155   8.3978E-01   3.7288E-02   4.0976E-02
     1873.000       88.156       11.844        0.846       99.154   8.4090E-01   3.7119E-02   4.0660E-02
     1873.000       88.236       11.764        0.847       99.153   8.4202E-01   3.6950E-02   4.0344E-02
     1873.000       88.316       11.684        0.848       99.152   8.4313E-01   3.6781E-02   4.0028E-02
     1873.000       88.396       11.604        0.849       99.151   8.4425E-01   3.6611E-02   3.9712E-02
     1873.000       88.476       11.524        0.850       99.150   8.4537E-01   3.6442E-02   3.9397E-02
     1873.000       88.556       11.444        0.851       99.149   8.4648E-01   3.6272E-02   3.9083E-02
     1873.000       88.636       11.364        0.852       99.148   8.4758E-01   3.6102E-02   3.8768E-02
     1873.000       88.716       11.284        0.853       99.147   8.4870E-01   3.5932E-02   3.8454E-02
     1873.000       88.796       11.204        0.854       99.146   8.4981E-01   3.5762E-02   3.8140E-02
     1873.000       88.876       11.124        0.855       99.145   8.5092E-01   3.5591E-02   3.7827E-02
     1873.000       88.955       11.045        0.856       99.144   8.5204E-01   3.5420E-02   3.7513E-02
     1873.000       89.035       10.965        0.857       99.143   8.5315E-01   3.5249E-02   3.7200E-02
     1873.000       89.115       10.885        0.858       99.142   8.5426E-01   3.5078E-02   3.6888E-02
     1873.000       89.194       10.806        0.859       99.141   8.5537E-01   3.4906E-02   3.6575E-02
     1873.000       89.274       10.726        0.860       99.140   8.5647E-01   3.4735E-02   3.6263E-02
     1873.000       89.353       10.647        0.861       99.139   8.5758E-01   3.4563E-02   3.5952E-02
     1873.000       89.433       10.567        0.862       99.138   8.5869E-01   3.4391E-02   3.5640E-02
     1873.000       89.512       10.488        0.863       99.137   8.5979E-01   3.4218E-02   3.5330E-02
     1873.000       89.592       10.408        0.864       99.136   8.6090E-01   3.4046E-02   3.5019E-02
     1873.000       89.671       10.329        0.865       99.135   8.6200E-01   3.3873E-02   3.4709E-02
     1873.000       89.750       10.250        0.866       99.134   8.6310E-01   3.3700E-02   3.4399E-02
     1873.000       89.830       10.170        0.867       99.133   8.6421E-01   3.3526E-02   3.4089E-02
     1873.000       89.909       10.091        0.868       99.132   8.6531E-01   3.3353E-02   3.3780E-02
     1873.000       89.988       10.012        0.869       99.131   8.6641E-01   3.3179E-02   3.3471E-02
     1873.000       90.067        9.933        0.870       99.130   8.6751E-01   3.3005E-02   3.3163E-02
     1873.000       90.146        9.854        0.871       99.129   8.6861E-01   3.2830E-02   3.2854E-02
     1873.000       90.225        9.775        0.872       99.128   8.6970E-01   3.2655E-02   3.2547E-02
     1873.000       90.304        9.696        0.873       99.127   8.7080E-01   3.2480E-02   3.2239E-02
     1873.000       90.383        9.617        0.874       99.126   8.7190E-01   3.2305E-02   3.1932E-02
     1873.000       90.462        9.538        0.875       99.125   8.7299E-01   3.2129E-02   3.1625E-02
     1873.000       90.541        9.459        0.876       99.124   8.7409E-01   3.1953E-02   3.1319E-02
     1873.000       90.620        9.380        0.877       99.123   8.7518E-01   3.1777E-02   3.1013E-02
     1873.000       90.698        9.302        0.878       99.122   8.7628E-01   3.1600E-02   3.0708E-02
     1873.000       90.777        9.223        0.879       99.121   8.7737E-01   3.1423E-02   3.0402E-02
     1873.000       90.856        9.144        0.880       99.120   8.7846E-01   3.1246E-02   3.0098E-02
     1873.000       90.935        9.065        0.881       99.119   8.7955E-01   3.1068E-02   2.9793E-02
     1873.000       91.013        8.987        0.882       99.118   8.8064E-01   3.0890E-02   2.9489E-02
     1873.000       91.092        8.908        0.883       99.117   8.8172E-01   3.0712E-02   2.9186E-02
     1873.000       91.170        8.830        0.884       99.116   8.8281E-01   3.0533E-02   2.8883E-02
     1873.000       91.249        8.751        0.885       99.115   8.8391E-01   3.0354E-02   2.8580E-02
     1873.000       91.327        8.673        0.886       99.114   8.8499E-01   3.0174E-02   2.8277E-02
     1873.000       91.406        8.594        0.887       99.113   8.8608E-01   2.9994E-02   2.7975E-02
     1873.000       91.484        8.516        0.888       99.112   8.8716E-01   2.9814E-02   2.7674E-02
     1873.000       91.562        8.438        0.889       99.111   8.8825E-01   2.9633E-02   2.7372E-02
     1873.000       91.641        8.359        0.890       99.110   8.8933E-01   2.9452E-02   2.7072E-02
     1873.000       91.719        8.281        0.891       99.109   8.9042E-01   2.9270E-02   2.6771E-02
     1873.000       91.797        8.203        0.892       99.108   8.9150E-01   2.9088E-02   2.6471E-02
     1873.000       91.875        8.125        0.893       99.107   8.9258E-01   2.8906E-02   2.6172E-02
     1873.000       91.953        8.047        0.894       99.106   8.9366E-01   2.8723E-02   2.5873E-02
     1873.000       92.031        7.969        0.895       99.105   8.9474E-01   2.8539E-02   2.5574E-02
     1873.000       92.109        7.891        0.896       99.104   8.9582E-01   2.8355E-02   2.5276E-02
     1873.000       92.187        7.813        0.897       99.103   8.9689E-01   2.8171E-02   2.4978E-02
     1873.000       92.265        7.735        0.898       99.102   8.9797E-01   2.7986E-02   2.4681E-02
     1873.000       92.343        7.657        0.899       99.101   8.9905E-01   2.7801E-02   2.4384E-02
     1873.000       92.421        7.579        0.900       99.100   9.0012E-01   2.7615E-02   2.4088E-02
     1873.000       92.499        7.501        0.901       99.099   9.0119E-01   2.7428E-02   2.3792E-02
     1873.000       92.576        7.424        0.902       99.098   9.0227E-01   2.7241E-02   2.3497E-02
     1873.000       92.654        7.346        0.903       99.097   9.0334E-01   2.7054E-02   2.3202E-02
     1873.000       92.732        7.268        0.904       99.096   9.0441E-01   2.6866E-02   2.2908E-02
     1873.000       92.810        7.190        0.905       99.095   9.0548E-01   2.6677E-02   2.2614E-02
     1873.000       92.887        7.113        0.906       99.094   9.0655E-01   2.6488E-02   2.2321E-02
     1873.000       92.965        7.035        0.907       99.093   9.0762E-01   2.6298E-02   2.2028E-02
     1873.000       93.042        6.958        0.908       99.092   9.0869E-01   2.6107E-02   2.1735E-02
     1873.000       93.120        6.880        0.909       99.091   9.0974E-01   2.5917E-02   2.1444E-02
     1873.000       93.197        6.803        0.910       99.090   9.1081E-01   2.5725E-02   2.1152E-02
     1873.000       93.275        6.725        0.911       99.089   9.1188E-01   2.5532E-02   2.0861E-02
     1873.000       93.352        6.648        0.912       99.088   9.1295E-01   2.5339E-02   2.0571E-02
     1873.000       93.429        6.571        0.913       99.087   9.1401E-01   2.5146E-02   2.0281E-02
     1873.000       93.506        6.494        0.914       99.086   9.1507E-01   2.4951E-02   1.9992E-02
     1873.000       93.584        6.416        0.915       99.085   9.1613E-01   2.4756E-02   1.9704E-02
     1873.000       93.661        6.339        0.916       99.084   9.1719E-01   2.4560E-02   1.9416E-02
     1873.000       93.738        6.262        0.917       99.083   9.1825E-01   2.4364E-02   1.9128E-02
     1873.000       93.815        6.185        0.918       99.082   9.1931E-01   2.4166E-02   1.8841E-02
     1873.000       93.892        6.108        0.919       99.081   9.2037E-01   2.3968E-02   1.8555E-02
     1873.000       93.969        6.031        0.920       99.080   9.2142E-01   2.3770E-02   1.8269E-02
     1873.000       94.046        5.954        0.921       99.079   9.2248E-01   2.3570E-02   1.7984E-02
     1873.000       94.123        5.877        0.922       99.078   9.2353E-01   2.3369E-02   1.7700E-02
     1873.000       94.200        5.800        0.923       99.077   9.2458E-01   2.3168E-02   1.7416E-02
     1873.000       94.277        5.723        0.924       99.076   9.2563E-01   2.2966E-02   1.7133E-02
     1873.000       94.354        5.646        0.925       99.075   9.2669E-01   2.2763E-02   1.6850E-02
     1873.000       94.430        5.570        0.926       99.074   9.2774E-01   2.2559E-02   1.6568E-02
     1873.000       94.507        5.493        0.927       99.073   9.2878E-01   2.2354E-02   1.6287E-02
     1873.000       94.584        5.416        0.928       99.072   9.2983E-01   2.2148E-02   1.6007E-02
     1873.000       94.660        5.340        0.929       99.071   9.3088E-01   2.1941E-02   1.5727E-02
     1873.000       94.737        5.263        0.930       99.070   9.3192E-01   2.1734E-02   1.5448E-02
     1873.000       94.814        5.186        0.931       99.069   9.3296E-01   2.1525E-02   1.5169E-02
     1873.000       94.890        5.110        0.932       99.068   9.3401E-01   2.1315E-02   1.4892E-02
     1873.000       94.967        5.033        0.933       99.067   9.3505E-01   2.1104E-02   1.4615E-02
     1873.000       95.043        4.957        0.934       99.066   9.3609E-01   2.0892E-02   1.4338E-02
     1873.000       95.120        4.880        0.935       99.065   9.3713E-01   2.0679E-02   1.4063E-02
     1873.000       95.196        4.804        0.936       99.064   9.3817E-01   2.0465E-02   1.3788E-02
     1873.000       95.272        4.728        0.937       99.063   9.3921E-01   2.0249E-02   1.3514E-02
     1873.000       95.349        4.651        0.938       99.062   9.4024E-01   2.0032E-02   1.3241E-02
     1873.000       95.425        4.575        0.939       99.061   9.4128E-01   1.9814E-02   1.2969E-02
     1873.000       95.501        4.499        0.940       99.060   9.4231E-01   1.9595E-02   1.2698E-02
     1873.000       95.577        4.423        0.941       99.059   9.4334E-01   1.9375E-02   1.2427E-02
     1873.000       95.653        4.347        0.942       99.058   9.4437E-01   1.9153E-02   1.2157E-02
     1873.000       95.729        4.271        0.943       99.057   9.4540E-01   1.8930E-02   1.1889E-02
     1873.000       95.805        4.195        0.944       99.056   9.4643E-01   1.8705E-02   1.1621E-02
     1873.000       95.881        4.119        0.945       99.055   9.4746E-01   1.8479E-02   1.1354E-02
     1873.000       95.957        4.043        0.946       99.054   9.4849E-01   1.8251E-02   1.1088E-02
     1873.000       96.033        3.967        0.947       99.053   9.4951E-01   1.8022E-02   1.0823E-02
     1873.000       96.109        3.891        0.948       99.052   9.5053E-01   1.7791E-02   1.0559E-02
     1873.000       96.185        3.815        0.949       99.051   9.5155E-01   1.7559E-02   1.0296E-02
     1873.000       96.261        3.739        0.950       99.050   9.5257E-01   1.7325E-02   1.0034E-02
     1873.000       96.337        3.663        0.951       99.049   9.5359E-01   1.7089E-02   9.7730E-03
     1873.000       96.412        3.588        0.952       99.048   9.5461E-01   1.6851E-02   9.5132E-03
     1873.000       96.488        3.512        0.953       99.047   9.5562E-01   1.6612E-02   9.2545E-03
     1873.000       96.564        3.436        0.954       99.046   9.5664E-01   1.6371E-02   8.9971E-03
     1873.000       96.639        3.361        0.955       99.045   9.5765E-01   1.6127E-02   8.7408E-03
     1873.000       96.715        3.285        0.956       99.044   9.5866E-01   1.5882E-02   8.4857E-03
     1873.000       96.790        3.210        0.957       99.043   9.5967E-01   1.5634E-02   8.2319E-03
     1873.000       96.866        3.134        0.958       99.042   9.6068E-01   1.5384E-02   7.9794E-03
     1873.000       96.941        3.059        0.959       99.041   9.6168E-01   1.5132E-02   7.7282E-03
     1873.000       97.017        2.983        0.960       99.040   9.6269E-01   1.4878E-02   7.4784E-03
     1873.000       97.092        2.908        0.961       99.039   9.6369E-01   1.4621E-02   7.2300E-03
     1873.000       97.167        2.833        0.962       99.038   9.6469E-01   1.4362E-02   6.9830E-03
     1873.000       97.242        2.758        0.963       99.037   9.6569E-01   1.4100E-02   6.7376E-03
     1873.000       97.318        2.682        0.964       99.036   9.6668E-01   1.3835E-02   6.4938E-03
     1873.000       97.393        2.607        0.965       99.035   9.6768E-01   1.3568E-02   6.2515E-03
     1873.000       97.468        2.532        0.966       99.034   9.6867E-01   1.3298E-02   6.0109E-03
     1873.000       97.543        2.457        0.967       99.033   9.6966E-01   1.3024E-02   5.7721E-03
     1873.000       97.618        2.382        0.968       99.032   9.7065E-01   1.2747E-02   5.5351E-03
     1873.000       97.693        2.307        0.969       99.031   9.7163E-01   1.2467E-02   5.2999E-03
     1873.000       97.768        2.232        0.970       99.030   9.7262E-01   1.2184E-02   5.0667E-03
     1873.000       97.843        2.157        0.971       99.029   9.7360E-01   1.1896E-02   4.8355E-03
     1873.000       97.918        2.082        0.972       99.028   9.7458E-01   1.1605E-02   4.6064E-03
     1873.000       97.993        2.007        0.973       99.027   9.7555E-01   1.1310E-02   4.3795E-03
     1873.000       98.068        1.932        0.974       99.026   9.7652E-01   1.1011E-02   4.1550E-03
     1873.000       98.143        1.857        0.975       99.025   9.7749E-01   1.0707E-02   3.9328E-03
     1873.000       98.217        1.783        0.976       99.024   9.7846E-01   1.0399E-02   3.7132E-03
     1873.000       98.292        1.708        0.977       99.023   9.7943E-01   1.0086E-02   3.4963E-03
     1873.000       98.367        1.633        0.978       99.022   9.8039E-01   9.7671E-03   3.2821E-03
     1873.000       98.442        1.558        0.979       99.021   9.8134E-01   9.4430E-03   3.0709E-03
     1873.000       98.516        1.484        0.980       99.020   9.8230E-01   9.1131E-03   2.8629E-03
     1873.000       98.591        1.409        0.981       99.019   9.8325E-01   8.7769E-03   2.6581E-03
     1873.000       98.665        1.335        0.982       99.018   9.8420E-01   8.4341E-03   2.4569E-03
     1873.000       98.740        1.260        0.983       99.017   9.8514E-01   8.0842E-03   2.2594E-03
     1873.000       98.814        1.186        0.984       99.016   9.8608E-01   7.7267E-03   2.0660E-03
     1873.000       98.889        1.111        0.985       99.015   9.8701E-01   7.3609E-03   1.8768E-03
     1873.000       98.963        1.037        0.986       99.014   9.8794E-01   6.9864E-03   1.6922E-03
     1873.000       99.037        0.963        0.987       99.013   9.8886E-01   6.6022E-03   1.5126E-03
     1873.000       99.112        0.888        0.988       99.012   9.8978E-01   6.2076E-03   1.3385E-03
     1873.000       99.186        0.814        0.989       99.011   9.9069E-01   5.8016E-03   1.1702E-03
     1873.000       99.260        0.740        0.990       99.010   9.9159E-01   5.3831E-03   1.0084E-03
     1873.000       99.334        0.666        0.991       99.009   9.9249E-01   4.9508E-03   8.5369E-04
     1873.000       99.408        0.592        0.992       99.008   9.9338E-01   4.5030E-03   7.0688E-04
     1873.000       99.482        0.518        0.993       99.007   9.9426E-01   4.0380E-03   5.6893E-04
     1873.000       99.556        0.444        0.994       99.006   9.9512E-01   3.5534E-03   4.4095E-04
     1873.000       99.630        0.370        0.995       99.005   9.9598E-01   3.0464E-03   3.2437E-04
     1873.000       99.704        0.296        0.996       99.004   9.9682E-01   2.5134E-03   2.2098E-04
     1873.000       99.778        0.222        0.997       99.003   9.9765E-01   1.9497E-03   1.3309E-04
     1873.000       99.852        0.148        0.998       99.002   9.9846E-01   1.3493E-03   6.3791E-05
     1873.000       99.926        0.074        0.999       99.001   9.9924E-01   7.0353E-04   1.7356E-05
     1873.000      100.000        0.000        1.000       99.000   1.0000E+00   0.0000E+00   0.0000E+00
