   Temp (K)   mole % SiO2  mole % ZnO     wt % SiO2    wt % ZnO     a(SiO2)      a(ZnO)     a(Zn2SiO4)  
     1973.000        0.135       99.865        0.001       99.999   4.2110E-05   9.9602E-01   1.3123E-03
     1973.000        0.271       99.729        0.002       99.998   8.4846E-05   9.9205E-01   2.6231E-03
     1973.000        0.406       99.594        0.003       99.997   1.2822E-04   9.8808E-01   3.9322E-03
     1973.000        0.541       99.459        0.004       99.996   1.7223E-04   9.8411E-01   5.2398E-03
     1973.000        0.676       99.324        0.005       99.995   2.1690E-04   9.8015E-01   6.5457E-03
     1973.000        0.811       99.189        0.006       99.994   2.6224E-04   9.7619E-01   7.8500E-03
     1973.000        0.946       99.054        0.007       99.993   3.0824E-04   9.7223E-01   9.1527E-03
     1973.000        1.081       98.919        0.008       99.992   3.5494E-04   9.6828E-01   1.0454E-02
     1973.000        1.216       98.784        0.009       99.991   4.0233E-04   9.6434E-01   1.1753E-02
     1973.000        1.350       98.650        0.010       99.990   4.5043E-04   9.6040E-01   1.3051E-02
     1973.000        1.485       98.515        0.011       99.989   4.9924E-04   9.5646E-01   1.4347E-02
     1973.000        1.619       98.381        0.012       99.988   5.4878E-04   9.5253E-01   1.5641E-02
     1973.000        1.753       98.247        0.013       99.987   5.9908E-04   9.4860E-01   1.6934E-02
     1973.000        1.887       98.113        0.014       99.986   6.5011E-04   9.4467E-01   1.8225E-02
     1973.000        2.022       97.978        0.015       99.985   7.0191E-04   9.4076E-01   1.9514E-02
     1973.000        2.156       97.844        0.016       99.984   7.5450E-04   9.3684E-01   2.0802E-02
     1973.000        2.290       97.710        0.017       99.983   8.0786E-04   9.3293E-01   2.2088E-02
     1973.000        2.423       97.577        0.018       99.982   8.6203E-04   9.2902E-01   2.3372E-02
     1973.000        2.557       97.443        0.019       99.981   9.1702E-04   9.2512E-01   2.4654E-02
     1973.000        2.691       97.309        0.020       99.980   9.7283E-04   9.2122E-01   2.5935E-02
     1973.000        2.824       97.176        0.021       99.979   1.0295E-03   9.1733E-01   2.7213E-02
     1973.000        2.958       97.042        0.022       99.978   1.0870E-03   9.1344E-01   2.8490E-02
     1973.000        3.091       96.909        0.023       99.977   1.1454E-03   9.0956E-01   2.9766E-02
     1973.000        3.224       96.776        0.024       99.976   1.2046E-03   9.0568E-01   3.1039E-02
     1973.000        3.357       96.643        0.025       99.975   1.2648E-03   9.0180E-01   3.2310E-02
     1973.000        3.491       96.509        0.026       99.974   1.3258E-03   8.9793E-01   3.3580E-02
     1973.000        3.624       96.376        0.027       99.973   1.3878E-03   8.9407E-01   3.4848E-02
     1973.000        3.756       96.244        0.028       99.972   1.4507E-03   8.9021E-01   3.6114E-02
     1973.000        3.889       96.111        0.029       99.971   1.5146E-03   8.8635E-01   3.7378E-02
     1973.000        4.022       95.978        0.030       99.970   1.5794E-03   8.8250E-01   3.8640E-02
     1973.000        4.155       95.845        0.031       99.969   1.6452E-03   8.7865E-01   3.9900E-02
     1973.000        4.287       95.713        0.032       99.968   1.7121E-03   8.7481E-01   4.1159E-02
     1973.000        4.419       95.581        0.033       99.967   1.7799E-03   8.7097E-01   4.2415E-02
     1973.000        4.552       95.448        0.034       99.966   1.8488E-03   8.6714E-01   4.3670E-02
     1973.000        4.684       95.316        0.035       99.965   1.9187E-03   8.6331E-01   4.4922E-02
     1973.000        4.816       95.184        0.036       99.964   1.9897E-03   8.5949E-01   4.6172E-02
     1973.000        4.948       95.052        0.037       99.963   2.0618E-03   8.5567E-01   4.7421E-02
     1973.000        5.080       94.920        0.038       99.962   2.1349E-03   8.5186E-01   4.8667E-02
     1973.000        5.212       94.788        0.039       99.961   2.2092E-03   8.4805E-01   4.9912E-02
     1973.000        5.344       94.656        0.040       99.960   2.2846E-03   8.4425E-01   5.1154E-02
     1973.000        5.475       94.525        0.041       99.959   2.3612E-03   8.4045E-01   5.2394E-02
     1973.000        5.607       94.393        0.042       99.958   2.4390E-03   8.3666E-01   5.3632E-02
     1973.000        5.739       94.261        0.043       99.957   2.5179E-03   8.3288E-01   5.4868E-02
     1973.000        5.870       94.130        0.044       99.956   2.5981E-03   8.2909E-01   5.6102E-02
     1973.000        6.001       93.999        0.045       99.955   2.6795E-03   8.2532E-01   5.7334E-02
     1973.000        6.132       93.868        0.046       99.954   2.7622E-03   8.2155E-01   5.8563E-02
     1973.000        6.264       93.736        0.047       99.953   2.8461E-03   8.1778E-01   5.9791E-02
     1973.000        6.395       93.605        0.048       99.952   2.9313E-03   8.1402E-01   6.1016E-02
     1973.000        6.526       93.474        0.049       99.951   3.0178E-03   8.1026E-01   6.2239E-02
     1973.000        6.656       93.344        0.050       99.950   3.1057E-03   8.0651E-01   6.3460E-02
     1973.000        6.787       93.213        0.051       99.949   3.1949E-03   8.0277E-01   6.4678E-02
     1973.000        6.918       93.082        0.052       99.948   3.2855E-03   7.9903E-01   6.5894E-02
     1973.000        7.048       92.952        0.053       99.947   3.3775E-03   7.9530E-01   6.7108E-02
     1973.000        7.179       92.821        0.054       99.946   3.4710E-03   7.9157E-01   6.8319E-02
     1973.000        7.309       92.691        0.055       99.945   3.5659E-03   7.8785E-01   6.9528E-02
     1973.000        7.440       92.560        0.056       99.944   3.6622E-03   7.8413E-01   7.0735E-02
     1973.000        7.570       92.430        0.057       99.943   3.7601E-03   7.8042E-01   7.1940E-02
     1973.000        7.700       92.300        0.058       99.942   3.8595E-03   7.7671E-01   7.3141E-02
     1973.000        7.830       92.170        0.059       99.941   3.9604E-03   7.7301E-01   7.4341E-02
     1973.000        7.960       92.040        0.060       99.940   4.0629E-03   7.6932E-01   7.5538E-02
     1973.000        8.090       91.910        0.061       99.939   4.1670E-03   7.6563E-01   7.6732E-02
     1973.000        8.220       91.780        0.062       99.938   4.2727E-03   7.6195E-01   7.7924E-02
     1973.000        8.349       91.651        0.063       99.937   4.3801E-03   7.5828E-01   7.9114E-02
     1973.000        8.479       91.521        0.064       99.936   4.4891E-03   7.5461E-01   8.0301E-02
     1973.000        8.608       91.392        0.065       99.935   4.5999E-03   7.5094E-01   8.1485E-02
     1973.000        8.738       91.262        0.066       99.934   4.7124E-03   7.4729E-01   8.2666E-02
     1973.000        8.867       91.133        0.067       99.933   4.8266E-03   7.4364E-01   8.3845E-02
     1973.000        8.996       91.004        0.068       99.932   4.9427E-03   7.3999E-01   8.5022E-02
     1973.000        9.125       90.875        0.069       99.931   5.0605E-03   7.3635E-01   8.6195E-02
     1973.000        9.254       90.746        0.070       99.930   5.1802E-03   7.3272E-01   8.7366E-02
     1973.000        9.383       90.617        0.071       99.929   5.3019E-03   7.2909E-01   8.8534E-02
     1973.000        9.512       90.488        0.072       99.928   5.4253E-03   7.2548E-01   8.9699E-02
     1973.000        9.641       90.359        0.073       99.927   5.5508E-03   7.2186E-01   9.0861E-02
     1973.000        9.770       90.230        0.074       99.926   5.6782E-03   7.1826E-01   9.2021E-02
     1973.000        9.898       90.102        0.075       99.925   5.8076E-03   7.1466E-01   9.3177E-02
     1973.000       10.027       89.973        0.076       99.924   5.9391E-03   7.1106E-01   9.4331E-02
     1973.000       10.155       89.845        0.077       99.923   6.0726E-03   7.0748E-01   9.5482E-02
     1973.000       10.284       89.716        0.078       99.922   6.2083E-03   7.0390E-01   9.6630E-02
     1973.000       10.412       89.588        0.079       99.921   6.3461E-03   7.0033E-01   9.7774E-02
     1973.000       10.540       89.460        0.080       99.920   6.4860E-03   6.9676E-01   9.8916E-02
     1973.000       10.668       89.332        0.081       99.919   6.6282E-03   6.9321E-01   1.0005E-01
     1973.000       10.796       89.204        0.082       99.918   6.7726E-03   6.8966E-01   1.0119E-01
     1973.000       10.924       89.076        0.083       99.917   6.9193E-03   6.8611E-01   1.0232E-01
     1973.000       11.052       88.948        0.084       99.916   7.0684E-03   6.8258E-01   1.0345E-01
     1973.000       11.179       88.821        0.085       99.915   7.2197E-03   6.7905E-01   1.0458E-01
     1973.000       11.307       88.693        0.086       99.914   7.3735E-03   6.7553E-01   1.0570E-01
     1973.000       11.435       88.565        0.087       99.913   7.5297E-03   6.7201E-01   1.0682E-01
     1973.000       11.562       88.438        0.088       99.912   7.6884E-03   6.6851E-01   1.0793E-01
     1973.000       11.689       88.311        0.089       99.911   7.8496E-03   6.6501E-01   1.0905E-01
     1973.000       11.817       88.183        0.090       99.910   8.0133E-03   6.6152E-01   1.1016E-01
     1973.000       11.944       88.056        0.091       99.909   8.1797E-03   6.5803E-01   1.1126E-01
     1973.000       12.071       87.929        0.092       99.908   8.3486E-03   6.5456E-01   1.1236E-01
     1973.000       12.198       87.802        0.093       99.907   8.5203E-03   6.5109E-01   1.1346E-01
     1973.000       12.325       87.675        0.094       99.906   8.6947E-03   6.4763E-01   1.1456E-01
     1973.000       12.452       87.548        0.095       99.905   8.8717E-03   6.4418E-01   1.1565E-01
     1973.000       12.579       87.421        0.096       99.904   9.0517E-03   6.4074E-01   1.1674E-01
     1973.000       12.705       87.295        0.097       99.903   9.2345E-03   6.3730E-01   1.1782E-01
     1973.000       12.832       87.168        0.098       99.902   9.4201E-03   6.3388E-01   1.1890E-01
     1973.000       12.958       87.042        0.099       99.901   9.6087E-03   6.3046E-01   1.1998E-01
     1973.000       13.085       86.915        0.100       99.900   9.8004E-03   6.2705E-01   1.2105E-01
     1973.000       13.211       86.789        0.101       99.899   9.9949E-03   6.2365E-01   1.2212E-01
     1973.000       13.337       86.663        0.102       99.898   1.0193E-02   6.2026E-01   1.2318E-01
     1973.000       13.463       86.537        0.103       99.897   1.0394E-02   6.1688E-01   1.2424E-01
     1973.000       13.589       86.411        0.104       99.896   1.0597E-02   6.1350E-01   1.2530E-01
     1973.000       13.715       86.285        0.105       99.895   1.0805E-02   6.1014E-01   1.2635E-01
     1973.000       13.841       86.159        0.106       99.894   1.1015E-02   6.0678E-01   1.2740E-01
     1973.000       13.967       86.033        0.107       99.893   1.1229E-02   6.0344E-01   1.2844E-01
     1973.000       14.093       85.907        0.108       99.892   1.1446E-02   6.0010E-01   1.2948E-01
     1973.000       14.218       85.782        0.109       99.891   1.1667E-02   5.9677E-01   1.3052E-01
     1973.000       14.344       85.656        0.110       99.890   1.1891E-02   5.9345E-01   1.3155E-01
     1973.000       14.469       85.531        0.111       99.889   1.2118E-02   5.9014E-01   1.3258E-01
     1973.000       14.595       85.405        0.112       99.888   1.2350E-02   5.8684E-01   1.3360E-01
     1973.000       14.720       85.280        0.113       99.887   1.2584E-02   5.8355E-01   1.3462E-01
     1973.000       14.845       85.155        0.114       99.886   1.2823E-02   5.8028E-01   1.3563E-01
     1973.000       14.970       85.030        0.115       99.885   1.3065E-02   5.7701E-01   1.3664E-01
     1973.000       15.095       84.905        0.116       99.884   1.3311E-02   5.7375E-01   1.3765E-01
     1973.000       15.220       84.780        0.117       99.883   1.3561E-02   5.7050E-01   1.3865E-01
     1973.000       15.345       84.655        0.118       99.882   1.3814E-02   5.6726E-01   1.3964E-01
     1973.000       15.470       84.530        0.119       99.881   1.4072E-02   5.6403E-01   1.4063E-01
     1973.000       15.595       84.405        0.120       99.880   1.4334E-02   5.6081E-01   1.4162E-01
     1973.000       15.719       84.281        0.121       99.879   1.4600E-02   5.5761E-01   1.4260E-01
     1973.000       15.844       84.156        0.122       99.878   1.4869E-02   5.5441E-01   1.4357E-01
     1973.000       15.968       84.032        0.123       99.877   1.5143E-02   5.5123E-01   1.4454E-01
     1973.000       16.093       83.907        0.124       99.876   1.5422E-02   5.4805E-01   1.4551E-01
     1973.000       16.217       83.783        0.125       99.875   1.5704E-02   5.4489E-01   1.4647E-01
     1973.000       16.341       83.659        0.126       99.874   1.5991E-02   5.4174E-01   1.4742E-01
     1973.000       16.465       83.535        0.127       99.873   1.6282E-02   5.3860E-01   1.4837E-01
     1973.000       16.589       83.411        0.128       99.872   1.6578E-02   5.3547E-01   1.4932E-01
     1973.000       16.713       83.287        0.129       99.871   1.6878E-02   5.3235E-01   1.5026E-01
     1973.000       16.837       83.163        0.130       99.870   1.7183E-02   5.2925E-01   1.5119E-01
     1973.000       16.961       83.039        0.131       99.869   1.7492E-02   5.2615E-01   1.5212E-01
     1973.000       17.084       82.916        0.132       99.868   1.7806E-02   5.2307E-01   1.5304E-01
     1973.000       17.208       82.792        0.133       99.867   1.8125E-02   5.2000E-01   1.5396E-01
     1973.000       17.332       82.668        0.134       99.866   1.8449E-02   5.1694E-01   1.5487E-01
     1973.000       17.455       82.545        0.135       99.865   1.8777E-02   5.1389E-01   1.5578E-01
     1973.000       17.578       82.422        0.136       99.864   1.9111E-02   5.1086E-01   1.5668E-01
     1973.000       17.702       82.298        0.137       99.863   1.9449E-02   5.0784E-01   1.5757E-01
     1973.000       17.825       82.175        0.138       99.862   1.9793E-02   5.0483E-01   1.5846E-01
     1973.000       17.948       82.052        0.139       99.861   2.0141E-02   5.0184E-01   1.5934E-01
     1973.000       18.071       81.929        0.140       99.860   2.0495E-02   4.9885E-01   1.6022E-01
     1973.000       18.194       81.806        0.141       99.859   2.0854E-02   4.9588E-01   1.6109E-01
     1973.000       18.317       81.683        0.142       99.858   2.1218E-02   4.9293E-01   1.6195E-01
     1973.000       18.439       81.561        0.143       99.857   2.1588E-02   4.8998E-01   1.6281E-01
     1973.000       18.562       81.438        0.144       99.856   2.1963E-02   4.8705E-01   1.6366E-01
     1973.000       18.685       81.315        0.145       99.855   2.2343E-02   4.8413E-01   1.6451E-01
     1973.000       18.807       81.193        0.146       99.854   2.2729E-02   4.8123E-01   1.6535E-01
     1973.000       18.930       81.070        0.147       99.853   2.3120E-02   4.7834E-01   1.6618E-01
     1973.000       19.052       80.948        0.148       99.852   2.3517E-02   4.7546E-01   1.6701E-01
     1973.000       19.174       80.826        0.149       99.851   2.3920E-02   4.7260E-01   1.6783E-01
     1973.000       19.296       80.704        0.150       99.850   2.4328E-02   4.6975E-01   1.6864E-01
     1973.000       19.418       80.582        0.151       99.849   2.4742E-02   4.6692E-01   1.6945E-01
     1973.000       19.540       80.460        0.152       99.848   2.5162E-02   4.6410E-01   1.7025E-01
     1973.000       19.662       80.338        0.153       99.847   2.5588E-02   4.6129E-01   1.7104E-01
     1973.000       19.784       80.216        0.154       99.846   2.6020E-02   4.5850E-01   1.7183E-01
     1973.000       19.906       80.094        0.155       99.845   2.6457E-02   4.5572E-01   1.7261E-01
     1973.000       20.028       79.972        0.156       99.844   2.6901E-02   4.5296E-01   1.7338E-01
     1973.000       20.149       79.851        0.157       99.843   2.7351E-02   4.5021E-01   1.7415E-01
     1973.000       20.271       79.729        0.158       99.842   2.7807E-02   4.4747E-01   1.7491E-01
     1973.000       20.392       79.608        0.159       99.841   2.8269E-02   4.4476E-01   1.7566E-01
     1973.000       20.514       79.486        0.160       99.840   2.8737E-02   4.4205E-01   1.7640E-01
     1973.000       20.635       79.365        0.161       99.839   2.9212E-02   4.3936E-01   1.7714E-01
     1973.000       20.756       79.244        0.162       99.838   2.9693E-02   4.3669E-01   1.7787E-01
     1973.000       20.877       79.123        0.163       99.837   3.0180E-02   4.3403E-01   1.7860E-01
     1973.000       20.998       79.002        0.164       99.836   3.0674E-02   4.3138E-01   1.7931E-01
     1973.000       21.119       78.881        0.165       99.835   3.1174E-02   4.2876E-01   1.8002E-01
     1973.000       21.240       78.760        0.166       99.834   3.1680E-02   4.2614E-01   1.8072E-01
     1973.000       21.361       78.639        0.167       99.833   3.2193E-02   4.2355E-01   1.8142E-01
     1973.000       21.482       78.518        0.168       99.832   3.2713E-02   4.2096E-01   1.8211E-01
     1973.000       21.602       78.398        0.169       99.831   3.3239E-02   4.1840E-01   1.8279E-01
     1973.000       21.723       78.277        0.170       99.830   3.3772E-02   4.1585E-01   1.8346E-01
     1973.000       21.843       78.157        0.171       99.829   3.4312E-02   4.1331E-01   1.8413E-01
     1973.000       21.964       78.036        0.172       99.828   3.4858E-02   4.1079E-01   1.8478E-01
     1973.000       22.084       77.916        0.173       99.827   3.5411E-02   4.0829E-01   1.8543E-01
     1973.000       22.204       77.796        0.174       99.826   3.5971E-02   4.0580E-01   1.8608E-01
     1973.000       22.324       77.676        0.175       99.825   3.6537E-02   4.0333E-01   1.8671E-01
     1973.000       22.444       77.556        0.176       99.824   3.7111E-02   4.0087E-01   1.8734E-01
     1973.000       22.564       77.436        0.177       99.823   3.7691E-02   3.9843E-01   1.8796E-01
     1973.000       22.684       77.316        0.178       99.822   3.8278E-02   3.9601E-01   1.8857E-01
     1973.000       22.804       77.196        0.179       99.821   3.8871E-02   3.9360E-01   1.8917E-01
     1973.000       22.924       77.076        0.180       99.820   3.9472E-02   3.9121E-01   1.8977E-01
     1973.000       23.044       76.956        0.181       99.819   4.0080E-02   3.8884E-01   1.9036E-01
     1973.000       23.163       76.837        0.182       99.818   4.0694E-02   3.8648E-01   1.9094E-01
     1973.000       23.283       76.717        0.183       99.817   4.1316E-02   3.8414E-01   1.9152E-01
     1973.000       23.402       76.598        0.184       99.816   4.1944E-02   3.8181E-01   1.9208E-01
     1973.000       23.521       76.479        0.185       99.815   4.2580E-02   3.7950E-01   1.9264E-01
     1973.000       23.641       76.359        0.186       99.814   4.3222E-02   3.7721E-01   1.9319E-01
     1973.000       23.760       76.240        0.187       99.813   4.3872E-02   3.7493E-01   1.9373E-01
     1973.000       23.879       76.121        0.188       99.812   4.4528E-02   3.7267E-01   1.9427E-01
     1973.000       23.998       76.002        0.189       99.811   4.5191E-02   3.7043E-01   1.9479E-01
     1973.000       24.117       75.883        0.190       99.810   4.5862E-02   3.6820E-01   1.9531E-01
     1973.000       24.236       75.764        0.191       99.809   4.6539E-02   3.6599E-01   1.9582E-01
     1973.000       24.355       75.645        0.192       99.808   4.7224E-02   3.6379E-01   1.9633E-01
     1973.000       24.473       75.527        0.193       99.807   4.7915E-02   3.6161E-01   1.9682E-01
     1973.000       24.592       75.408        0.194       99.806   4.8614E-02   3.5945E-01   1.9731E-01
     1973.000       24.711       75.289        0.195       99.805   4.9319E-02   3.5731E-01   1.9779E-01
     1973.000       24.829       75.171        0.196       99.804   5.0031E-02   3.5518E-01   1.9826E-01
     1973.000       24.947       75.053        0.197       99.803   5.0751E-02   3.5306E-01   1.9873E-01
     1973.000       25.066       74.934        0.198       99.802   5.1477E-02   3.5097E-01   1.9919E-01
     1973.000       25.184       74.816        0.199       99.801   5.2210E-02   3.4888E-01   1.9963E-01
     1973.000       25.302       74.698        0.200       99.800   5.2951E-02   3.4682E-01   2.0008E-01
     1973.000       25.420       74.580        0.201       99.799   5.3698E-02   3.4477E-01   2.0051E-01
     1973.000       25.538       74.462        0.202       99.798   5.4452E-02   3.4274E-01   2.0094E-01
     1973.000       25.656       74.344        0.203       99.797   5.5213E-02   3.4072E-01   2.0135E-01
     1973.000       25.774       74.226        0.204       99.796   5.5981E-02   3.3872E-01   2.0176E-01
     1973.000       25.892       74.108        0.205       99.795   5.6755E-02   3.3674E-01   2.0217E-01
     1973.000       26.010       73.990        0.206       99.794   5.7537E-02   3.3477E-01   2.0256E-01
     1973.000       26.127       73.873        0.207       99.793   5.8325E-02   3.3282E-01   2.0295E-01
     1973.000       26.245       73.755        0.208       99.792   5.9121E-02   3.3088E-01   2.0333E-01
     1973.000       26.362       73.638        0.209       99.791   5.9922E-02   3.2896E-01   2.0370E-01
     1973.000       26.480       73.520        0.210       99.790   6.0731E-02   3.2706E-01   2.0407E-01
     1973.000       26.597       73.403        0.211       99.789   6.1546E-02   3.2517E-01   2.0443E-01
     1973.000       26.714       73.286        0.212       99.788   6.2368E-02   3.2330E-01   2.0478E-01
     1973.000       26.831       73.169        0.213       99.787   6.3197E-02   3.2144E-01   2.0512E-01
     1973.000       26.948       73.052        0.214       99.786   6.4032E-02   3.1960E-01   2.0546E-01
     1973.000       27.065       72.935        0.215       99.785   6.4874E-02   3.1777E-01   2.0578E-01
     1973.000       27.182       72.818        0.216       99.784   6.5722E-02   3.1596E-01   2.0611E-01
     1973.000       27.299       72.701        0.217       99.783   6.6576E-02   3.1416E-01   2.0642E-01
     1973.000       27.416       72.584        0.218       99.782   6.7438E-02   3.1238E-01   2.0673E-01
     1973.000       27.533       72.467        0.219       99.781   6.8305E-02   3.1062E-01   2.0703E-01
     1973.000       27.649       72.351        0.220       99.780   6.9179E-02   3.0887E-01   2.0732E-01
     1973.000       27.766       72.234        0.221       99.779   7.0060E-02   3.0713E-01   2.0760E-01
     1973.000       27.882       72.118        0.222       99.778   7.0946E-02   3.0541E-01   2.0788E-01
     1973.000       27.999       72.001        0.223       99.777   7.1839E-02   3.0371E-01   2.0815E-01
     1973.000       28.115       71.885        0.224       99.776   7.2738E-02   3.0201E-01   2.0842E-01
     1973.000       28.231       71.769        0.225       99.775   7.3643E-02   3.0034E-01   2.0867E-01
     1973.000       28.347       71.653        0.226       99.774   7.4554E-02   2.9868E-01   2.0892E-01
     1973.000       28.463       71.537        0.227       99.773   7.5472E-02   2.9703E-01   2.0917E-01
     1973.000       28.579       71.421        0.228       99.772   7.6395E-02   2.9539E-01   2.0940E-01
     1973.000       28.695       71.305        0.229       99.771   7.7324E-02   2.9377E-01   2.0963E-01
     1973.000       28.811       71.189        0.230       99.770   7.8259E-02   2.9217E-01   2.0986E-01
     1973.000       28.927       71.073        0.231       99.769   7.9200E-02   2.9058E-01   2.1007E-01
     1973.000       29.043       70.957        0.232       99.768   8.0148E-02   2.8900E-01   2.1028E-01
     1973.000       29.158       70.842        0.233       99.767   8.1100E-02   2.8744E-01   2.1049E-01
     1973.000       29.274       70.726        0.234       99.766   8.2059E-02   2.8589E-01   2.1068E-01
     1973.000       29.389       70.611        0.235       99.765   8.3022E-02   2.8435E-01   2.1087E-01
     1973.000       29.505       70.495        0.236       99.764   8.3992E-02   2.8283E-01   2.1106E-01
     1973.000       29.620       70.380        0.237       99.763   8.4967E-02   2.8132E-01   2.1124E-01
     1973.000       29.735       70.265        0.238       99.762   8.5948E-02   2.7983E-01   2.1141E-01
     1973.000       29.850       70.150        0.239       99.761   8.6934E-02   2.7834E-01   2.1157E-01
     1973.000       29.965       70.035        0.240       99.760   8.7926E-02   2.7687E-01   2.1173E-01
     1973.000       30.080       69.920        0.241       99.759   8.8923E-02   2.7542E-01   2.1189E-01
     1973.000       30.195       69.805        0.242       99.758   8.9925E-02   2.7397E-01   2.1203E-01
     1973.000       30.310       69.690        0.243       99.757   9.0933E-02   2.7254E-01   2.1218E-01
     1973.000       30.425       69.575        0.244       99.756   9.1945E-02   2.7112E-01   2.1231E-01
     1973.000       30.540       69.460        0.245       99.755   9.2963E-02   2.6972E-01   2.1244E-01
     1973.000       30.654       69.346        0.246       99.754   9.3985E-02   2.6832E-01   2.1256E-01
     1973.000       30.769       69.231        0.247       99.753   9.5014E-02   2.6694E-01   2.1268E-01
     1973.000       30.883       69.117        0.248       99.752   9.6047E-02   2.6557E-01   2.1279E-01
     1973.000       30.998       69.002        0.249       99.751   9.7084E-02   2.6421E-01   2.1290E-01
     1973.000       31.112       68.888        0.250       99.750   9.8127E-02   2.6287E-01   2.1300E-01
     1973.000       31.227       68.773        0.251       99.749   9.9174E-02   2.6154E-01   2.1310E-01
     1973.000       31.341       68.659        0.252       99.748   1.0023E-01   2.6021E-01   2.1319E-01
     1973.000       31.455       68.545        0.253       99.747   1.0128E-01   2.5890E-01   2.1327E-01
     1973.000       31.569       68.431        0.254       99.746   1.0234E-01   2.5761E-01   2.1335E-01
     1973.000       31.683       68.317        0.255       99.745   1.0341E-01   2.5632E-01   2.1342E-01
     1973.000       31.797       68.203        0.256       99.744   1.0448E-01   2.5504E-01   2.1349E-01
     1973.000       31.911       68.089        0.257       99.743   1.0556E-01   2.5378E-01   2.1355E-01
     1973.000       32.024       67.976        0.258       99.742   1.0664E-01   2.5252E-01   2.1361E-01
     1973.000       32.138       67.862        0.259       99.741   1.0772E-01   2.5128E-01   2.1367E-01
     1973.000       32.252       67.748        0.260       99.740   1.0881E-01   2.5005E-01   2.1371E-01
     1973.000       32.365       67.635        0.261       99.739   1.0990E-01   2.4883E-01   2.1376E-01
     1973.000       32.479       67.521        0.262       99.738   1.1100E-01   2.4762E-01   2.1379E-01
     1973.000       32.592       67.408        0.263       99.737   1.1210E-01   2.4642E-01   2.1383E-01
     1973.000       32.705       67.295        0.264       99.736   1.1320E-01   2.4523E-01   2.1386E-01
     1973.000       32.818       67.182        0.265       99.735   1.1431E-01   2.4405E-01   2.1388E-01
     1973.000       32.932       67.068        0.266       99.734   1.1542E-01   2.4288E-01   2.1390E-01
     1973.000       33.045       66.955        0.267       99.733   1.1654E-01   2.4172E-01   2.1391E-01
     1973.000       33.158       66.842        0.268       99.732   1.1766E-01   2.4058E-01   2.1392E-01
     1973.000       33.271       66.729        0.269       99.731   1.1879E-01   2.3944E-01   2.1393E-01
     1973.000       33.384       66.616        0.270       99.730   1.1990E-01   2.3832E-01   2.1393E-01
     1973.000       33.496       66.504        0.271       99.729   1.2104E-01   2.3720E-01   2.1392E-01
     1973.000       33.609       66.391        0.272       99.728   1.2217E-01   2.3609E-01   2.1391E-01
     1973.000       33.722       66.278        0.273       99.727   1.2331E-01   2.3499E-01   2.1390E-01
     1973.000       33.834       66.166        0.274       99.726   1.2446E-01   2.3390E-01   2.1388E-01
     1973.000       33.947       66.053        0.275       99.725   1.2560E-01   2.3282E-01   2.1386E-01
     1973.000       34.059       65.941        0.276       99.724   1.2675E-01   2.3174E-01   2.1384E-01
     1973.000       34.172       65.828        0.277       99.723   1.2790E-01   2.3068E-01   2.1381E-01
     1973.000       34.284       65.716        0.278       99.722   1.2906E-01   2.2962E-01   2.1377E-01
     1973.000       34.396       65.604        0.279       99.721   1.3022E-01   2.2858E-01   2.1373E-01
     1973.000       34.508       65.492        0.280       99.720   1.3139E-01   2.2754E-01   2.1369E-01
     1973.000       34.620       65.380        0.281       99.719   1.3255E-01   2.2651E-01   2.1364E-01
     1973.000       34.732       65.268        0.282       99.718   1.3372E-01   2.2549E-01   2.1359E-01
     1973.000       34.844       65.156        0.283       99.717   1.3490E-01   2.2448E-01   2.1354E-01
     1973.000       34.956       65.044        0.284       99.716   1.3607E-01   2.2348E-01   2.1348E-01
     1973.000       35.068       64.932        0.285       99.715   1.3725E-01   2.2249E-01   2.1342E-01
     1973.000       35.180       64.820        0.286       99.714   1.3843E-01   2.2150E-01   2.1336E-01
     1973.000       35.291       64.709        0.287       99.713   1.3962E-01   2.2052E-01   2.1329E-01
     1973.000       35.403       64.597        0.288       99.712   1.4081E-01   2.1955E-01   2.1321E-01
     1973.000       35.514       64.486        0.289       99.711   1.4200E-01   2.1859E-01   2.1314E-01
     1973.000       35.626       64.374        0.290       99.710   1.4319E-01   2.1763E-01   2.1306E-01
     1973.000       35.737       64.263        0.291       99.709   1.4439E-01   2.1669E-01   2.1297E-01
     1973.000       35.848       64.152        0.292       99.708   1.4559E-01   2.1575E-01   2.1289E-01
     1973.000       35.959       64.041        0.293       99.707   1.4679E-01   2.1482E-01   2.1280E-01
     1973.000       36.071       63.929        0.294       99.706   1.4800E-01   2.1390E-01   2.1270E-01
     1973.000       36.182       63.818        0.295       99.705   1.4921E-01   2.1298E-01   2.1260E-01
     1973.000       36.293       63.707        0.296       99.704   1.5042E-01   2.1207E-01   2.1250E-01
     1973.000       36.404       63.596        0.297       99.703   1.5163E-01   2.1117E-01   2.1240E-01
     1973.000       36.514       63.486        0.298       99.702   1.5284E-01   2.1027E-01   2.1229E-01
     1973.000       36.625       63.375        0.299       99.701   1.5406E-01   2.0939E-01   2.1218E-01
     1973.000       36.736       63.264        0.300       99.700   1.5528E-01   2.0851E-01   2.1207E-01
     1973.000       36.847       63.153        0.301       99.699   1.5651E-01   2.0763E-01   2.1195E-01
     1973.000       36.957       63.043        0.302       99.698   1.5773E-01   2.0677E-01   2.1183E-01
     1973.000       37.068       62.932        0.303       99.697   1.5896E-01   2.0591E-01   2.1171E-01
     1973.000       37.178       62.822        0.304       99.696   1.6019E-01   2.0505E-01   2.1159E-01
     1973.000       37.288       62.712        0.305       99.695   1.6142E-01   2.0421E-01   2.1146E-01
     1973.000       37.399       62.601        0.306       99.694   1.6266E-01   2.0337E-01   2.1133E-01
     1973.000       37.509       62.491        0.307       99.693   1.6389E-01   2.0254E-01   2.1119E-01
     1973.000       37.619       62.381        0.308       99.692   1.6513E-01   2.0171E-01   2.1105E-01
     1973.000       37.729       62.271        0.309       99.691   1.6637E-01   2.0089E-01   2.1091E-01
     1973.000       37.839       62.161        0.310       99.690   1.6761E-01   2.0007E-01   2.1077E-01
     1973.000       37.949       62.051        0.311       99.689   1.6886E-01   1.9927E-01   2.1062E-01
     1973.000       38.059       61.941        0.312       99.688   1.7011E-01   1.9846E-01   2.1048E-01
     1973.000       38.169       61.831        0.313       99.687   1.7136E-01   1.9767E-01   2.1032E-01
     1973.000       38.278       61.722        0.314       99.686   1.7261E-01   1.9688E-01   2.1017E-01
     1973.000       38.388       61.612        0.315       99.685   1.7386E-01   1.9610E-01   2.1001E-01
     1973.000       38.498       61.502        0.316       99.684   1.7511E-01   1.9532E-01   2.0986E-01
     1973.000       38.607       61.393        0.317       99.683   1.7637E-01   1.9455E-01   2.0969E-01
     1973.000       38.717       61.283        0.318       99.682   1.7763E-01   1.9378E-01   2.0953E-01
     1973.000       38.826       61.174        0.319       99.681   1.7889E-01   1.9302E-01   2.0936E-01
     1973.000       38.935       61.065        0.320       99.680   1.8015E-01   1.9226E-01   2.0919E-01
     1973.000       39.044       60.956        0.321       99.679   1.8141E-01   1.9152E-01   2.0902E-01
     1973.000       39.154       60.846        0.322       99.678   1.8268E-01   1.9077E-01   2.0885E-01
     1973.000       39.263       60.737        0.323       99.677   1.8395E-01   1.9003E-01   2.0867E-01
     1973.000       39.372       60.628        0.324       99.676   1.8522E-01   1.8930E-01   2.0849E-01
     1973.000       39.481       60.519        0.325       99.675   1.8649E-01   1.8857E-01   2.0831E-01
     1973.000       39.590       60.410        0.326       99.674   1.8776E-01   1.8785E-01   2.0813E-01
     1973.000       39.698       60.302        0.327       99.673   1.8903E-01   1.8713E-01   2.0794E-01
     1973.000       39.807       60.193        0.328       99.672   1.9031E-01   1.8642E-01   2.0776E-01
     1973.000       39.916       60.084        0.329       99.671   1.9158E-01   1.8571E-01   2.0757E-01
     1973.000       40.024       59.976        0.330       99.670   1.9286E-01   1.8501E-01   2.0738E-01
     1973.000       40.133       59.867        0.331       99.669   1.9414E-01   1.8431E-01   2.0718E-01
     1973.000       40.241       59.759        0.332       99.668   1.9542E-01   1.8362E-01   2.0698E-01
     1973.000       40.350       59.650        0.333       99.667   1.9670E-01   1.8293E-01   2.0679E-01
     1973.000       40.458       59.542        0.334       99.666   1.9799E-01   1.8225E-01   2.0659E-01
     1973.000       40.566       59.434        0.335       99.665   1.9927E-01   1.8158E-01   2.0638E-01
     1973.000       40.675       59.325        0.336       99.664   2.0056E-01   1.8090E-01   2.0618E-01
     1973.000       40.783       59.217        0.337       99.663   2.0185E-01   1.8023E-01   2.0597E-01
     1973.000       40.891       59.109        0.338       99.662   2.0314E-01   1.7957E-01   2.0576E-01
     1973.000       40.999       59.001        0.339       99.661   2.0443E-01   1.7891E-01   2.0555E-01
     1973.000       41.107       58.893        0.340       99.660   2.0572E-01   1.7826E-01   2.0534E-01
     1973.000       41.214       58.786        0.341       99.659   2.0701E-01   1.7761E-01   2.0513E-01
     1973.000       41.322       58.678        0.342       99.658   2.0830E-01   1.7696E-01   2.0491E-01
     1973.000       41.430       58.570        0.343       99.657   2.0960E-01   1.7632E-01   2.0469E-01
     1973.000       41.538       58.462        0.344       99.656   2.1090E-01   1.7568E-01   2.0447E-01
     1973.000       41.645       58.355        0.345       99.655   2.1219E-01   1.7505E-01   2.0425E-01
     1973.000       41.753       58.247        0.346       99.654   2.1349E-01   1.7442E-01   2.0403E-01
     1973.000       41.860       58.140        0.347       99.653   2.1479E-01   1.7380E-01   2.0380E-01
     1973.000       41.968       58.032        0.348       99.652   2.1609E-01   1.7318E-01   2.0358E-01
     1973.000       42.075       57.925        0.349       99.651   2.1739E-01   1.7256E-01   2.0335E-01
     1973.000       42.182       57.818        0.350       99.650   2.1870E-01   1.7195E-01   2.0312E-01
     1973.000       42.289       57.711        0.351       99.649   2.2000E-01   1.7134E-01   2.0289E-01
     1973.000       42.396       57.604        0.352       99.648   2.2130E-01   1.7074E-01   2.0265E-01
     1973.000       42.503       57.497        0.353       99.647   2.2261E-01   1.7014E-01   2.0242E-01
     1973.000       42.610       57.390        0.354       99.646   2.2392E-01   1.6954E-01   2.0218E-01
     1973.000       42.717       57.283        0.355       99.645   2.2522E-01   1.6895E-01   2.0194E-01
     1973.000       42.824       57.176        0.356       99.644   2.2653E-01   1.6836E-01   2.0170E-01
     1973.000       42.931       57.069        0.357       99.643   2.2784E-01   1.6777E-01   2.0146E-01
     1973.000       43.038       56.962        0.358       99.642   2.2915E-01   1.6719E-01   2.0122E-01
     1973.000       43.144       56.856        0.359       99.641   2.3046E-01   1.6662E-01   2.0097E-01
     1973.000       43.251       56.749        0.360       99.640   2.3177E-01   1.6604E-01   2.0073E-01
     1973.000       43.357       56.643        0.361       99.639   2.3308E-01   1.6547E-01   2.0048E-01
     1973.000       43.464       56.536        0.362       99.638   2.3440E-01   1.6490E-01   2.0023E-01
     1973.000       43.570       56.430        0.363       99.637   2.3571E-01   1.6434E-01   1.9998E-01
     1973.000       43.676       56.324        0.364       99.636   2.3703E-01   1.6378E-01   1.9973E-01
     1973.000       43.783       56.217        0.365       99.635   2.3834E-01   1.6323E-01   1.9948E-01
     1973.000       43.889       56.111        0.366       99.634   2.3966E-01   1.6267E-01   1.9922E-01
     1973.000       43.995       56.005        0.367       99.633   2.4097E-01   1.6212E-01   1.9897E-01
     1973.000       44.101       55.899        0.368       99.632   2.4229E-01   1.6158E-01   1.9871E-01
     1973.000       44.207       55.793        0.369       99.631   2.4361E-01   1.6104E-01   1.9845E-01
     1973.000       44.313       55.687        0.370       99.630   2.4493E-01   1.6050E-01   1.9819E-01
     1973.000       44.419       55.581        0.371       99.629   2.4625E-01   1.5996E-01   1.9793E-01
     1973.000       44.524       55.476        0.372       99.628   2.4757E-01   1.5943E-01   1.9767E-01
     1973.000       44.630       55.370        0.373       99.627   2.4889E-01   1.5890E-01   1.9740E-01
     1973.000       44.736       55.264        0.374       99.626   2.5021E-01   1.5837E-01   1.9714E-01
     1973.000       44.841       55.159        0.375       99.625   2.5153E-01   1.5785E-01   1.9687E-01
     1973.000       44.947       55.053        0.376       99.624   2.5285E-01   1.5733E-01   1.9661E-01
     1973.000       45.052       54.948        0.377       99.623   2.5418E-01   1.5681E-01   1.9634E-01
     1973.000       45.157       54.843        0.378       99.622   2.5550E-01   1.5630E-01   1.9607E-01
     1973.000       45.263       54.737        0.379       99.621   2.5682E-01   1.5579E-01   1.9580E-01
     1973.000       45.368       54.632        0.380       99.620   2.5815E-01   1.5528E-01   1.9552E-01
     1973.000       45.473       54.527        0.381       99.619   2.5947E-01   1.5477E-01   1.9525E-01
     1973.000       45.578       54.422        0.382       99.618   2.6080E-01   1.5427E-01   1.9498E-01
     1973.000       45.683       54.317        0.383       99.617   2.6213E-01   1.5377E-01   1.9470E-01
     1973.000       45.788       54.212        0.384       99.616   2.6345E-01   1.5327E-01   1.9442E-01
     1973.000       45.893       54.107        0.385       99.615   2.6478E-01   1.5278E-01   1.9415E-01
     1973.000       45.998       54.002        0.386       99.614   2.6610E-01   1.5229E-01   1.9387E-01
     1973.000       46.103       53.897        0.387       99.613   2.6743E-01   1.5180E-01   1.9359E-01
     1973.000       46.207       53.793        0.388       99.612   2.6876E-01   1.5132E-01   1.9331E-01
     1973.000       46.312       53.688        0.389       99.611   2.7009E-01   1.5083E-01   1.9303E-01
     1973.000       46.417       53.583        0.390       99.610   2.7142E-01   1.5035E-01   1.9274E-01
     1973.000       46.521       53.479        0.391       99.609   2.7275E-01   1.4988E-01   1.9246E-01
     1973.000       46.626       53.374        0.392       99.608   2.7408E-01   1.4940E-01   1.9217E-01
     1973.000       46.730       53.270        0.393       99.607   2.7541E-01   1.4893E-01   1.9189E-01
     1973.000       46.834       53.166        0.394       99.606   2.7674E-01   1.4846E-01   1.9160E-01
     1973.000       46.939       53.061        0.395       99.605   2.7807E-01   1.4799E-01   1.9131E-01
     1973.000       47.043       52.957        0.396       99.604   2.7940E-01   1.4753E-01   1.9102E-01
     1973.000       47.147       52.853        0.397       99.603   2.8073E-01   1.4707E-01   1.9073E-01
     1973.000       47.251       52.749        0.398       99.602   2.8206E-01   1.4661E-01   1.9044E-01
     1973.000       47.355       52.645        0.399       99.601   2.8339E-01   1.4615E-01   1.9015E-01
     1973.000       47.459       52.541        0.400       99.600   2.8472E-01   1.4570E-01   1.8986E-01
     1973.000       47.563       52.437        0.401       99.599   2.8605E-01   1.4524E-01   1.8957E-01
     1973.000       47.667       52.333        0.402       99.598   2.8739E-01   1.4479E-01   1.8927E-01
     1973.000       47.770       52.230        0.403       99.597   2.8872E-01   1.4435E-01   1.8898E-01
     1973.000       47.874       52.126        0.404       99.596   2.9005E-01   1.4390E-01   1.8868E-01
     1973.000       47.978       52.022        0.405       99.595   2.9139E-01   1.4346E-01   1.8838E-01
     1973.000       48.081       51.919        0.406       99.594   2.9272E-01   1.4302E-01   1.8809E-01
     1973.000       48.185       51.815        0.407       99.593   2.9405E-01   1.4258E-01   1.8779E-01
     1973.000       48.288       51.712        0.408       99.592   2.9538E-01   1.4215E-01   1.8749E-01
     1973.000       48.391       51.609        0.409       99.591   2.9672E-01   1.4171E-01   1.8719E-01
     1973.000       48.495       51.505        0.410       99.590   2.9805E-01   1.4128E-01   1.8689E-01
     1973.000       48.598       51.402        0.411       99.589   2.9939E-01   1.4085E-01   1.8659E-01
     1973.000       48.701       51.299        0.412       99.588   3.0072E-01   1.4043E-01   1.8628E-01
     1973.000       48.804       51.196        0.413       99.587   3.0205E-01   1.4000E-01   1.8598E-01
     1973.000       48.907       51.093        0.414       99.586   3.0339E-01   1.3958E-01   1.8568E-01
     1973.000       49.010       50.990        0.415       99.585   3.0472E-01   1.3916E-01   1.8537E-01
     1973.000       49.113       50.887        0.416       99.584   3.0606E-01   1.3874E-01   1.8507E-01
     1973.000       49.216       50.784        0.417       99.583   3.0739E-01   1.3832E-01   1.8476E-01
     1973.000       49.319       50.681        0.418       99.582   3.0873E-01   1.3791E-01   1.8445E-01
     1973.000       49.421       50.579        0.419       99.581   3.1006E-01   1.3750E-01   1.8415E-01
     1973.000       49.524       50.476        0.420       99.580   3.1140E-01   1.3709E-01   1.8384E-01
     1973.000       49.627       50.373        0.421       99.579   3.1273E-01   1.3668E-01   1.8353E-01
     1973.000       49.729       50.271        0.422       99.578   3.1407E-01   1.3628E-01   1.8322E-01
     1973.000       49.832       50.168        0.423       99.577   3.1540E-01   1.3587E-01   1.8291E-01
     1973.000       49.934       50.066        0.424       99.576   3.1674E-01   1.3547E-01   1.8260E-01
     1973.000       50.036       49.964        0.425       99.575   3.1807E-01   1.3507E-01   1.8229E-01
     1973.000       50.139       49.861        0.426       99.574   3.1941E-01   1.3467E-01   1.8197E-01
     1973.000       50.241       49.759        0.427       99.573   3.2074E-01   1.3427E-01   1.8166E-01
     1973.000       50.343       49.657        0.428       99.572   3.2208E-01   1.3388E-01   1.8135E-01
     1973.000       50.445       49.555        0.429       99.571   3.2341E-01   1.3349E-01   1.8103E-01
     1973.000       50.547       49.453        0.430       99.570   3.2475E-01   1.3310E-01   1.8072E-01
     1973.000       50.649       49.351        0.431       99.569   3.2608E-01   1.3271E-01   1.8040E-01
     1973.000       50.751       49.249        0.432       99.568   3.2742E-01   1.3232E-01   1.8009E-01
     1973.000       50.853       49.147        0.433       99.567   3.2875E-01   1.3194E-01   1.7977E-01
     1973.000       50.955       49.045        0.434       99.566   3.3009E-01   1.3155E-01   1.7945E-01
     1973.000       51.056       48.944        0.435       99.565   3.3142E-01   1.3117E-01   1.7913E-01
     1973.000       51.158       48.842        0.436       99.564   3.3276E-01   1.3079E-01   1.7882E-01
     1973.000       51.259       48.741        0.437       99.563   3.3409E-01   1.3041E-01   1.7850E-01
     1973.000       51.361       48.639        0.438       99.562   3.3543E-01   1.3004E-01   1.7818E-01
     1973.000       51.462       48.538        0.439       99.561   3.3676E-01   1.2966E-01   1.7786E-01
     1973.000       51.564       48.436        0.440       99.560   3.3809E-01   1.2929E-01   1.7754E-01
     1973.000       51.665       48.335        0.441       99.559   3.3943E-01   1.2892E-01   1.7722E-01
     1973.000       51.766       48.234        0.442       99.558   3.4076E-01   1.2855E-01   1.7689E-01
     1973.000       51.868       48.132        0.443       99.557   3.4210E-01   1.2818E-01   1.7657E-01
     1973.000       51.969       48.031        0.444       99.556   3.4343E-01   1.2782E-01   1.7625E-01
     1973.000       52.070       47.930        0.445       99.555   3.4477E-01   1.2745E-01   1.7593E-01
     1973.000       52.171       47.829        0.446       99.554   3.4610E-01   1.2709E-01   1.7560E-01
     1973.000       52.272       47.728        0.447       99.553   3.4743E-01   1.2673E-01   1.7528E-01
     1973.000       52.373       47.627        0.448       99.552   3.4877E-01   1.2637E-01   1.7495E-01
     1973.000       52.474       47.526        0.449       99.551   3.5010E-01   1.2601E-01   1.7463E-01
     1973.000       52.574       47.426        0.450       99.550   3.5143E-01   1.2565E-01   1.7430E-01
     1973.000       52.675       47.325        0.451       99.549   3.5277E-01   1.2530E-01   1.7398E-01
     1973.000       52.776       47.224        0.452       99.548   3.5410E-01   1.2494E-01   1.7365E-01
     1973.000       52.876       47.124        0.453       99.547   3.5543E-01   1.2459E-01   1.7332E-01
     1973.000       52.977       47.023        0.454       99.546   3.5677E-01   1.2424E-01   1.7300E-01
     1973.000       53.077       46.923        0.455       99.545   3.5810E-01   1.2389E-01   1.7267E-01
     1973.000       53.178       46.822        0.456       99.544   3.5943E-01   1.2355E-01   1.7234E-01
     1973.000       53.278       46.722        0.457       99.543   3.6076E-01   1.2320E-01   1.7201E-01
     1973.000       53.378       46.622        0.458       99.542   3.6210E-01   1.2285E-01   1.7168E-01
     1973.000       53.479       46.521        0.459       99.541   3.6343E-01   1.2251E-01   1.7135E-01
     1973.000       53.579       46.421        0.460       99.540   3.6476E-01   1.2217E-01   1.7102E-01
     1973.000       53.679       46.321        0.461       99.539   3.6609E-01   1.2183E-01   1.7069E-01
     1973.000       53.779       46.221        0.462       99.538   3.6742E-01   1.2149E-01   1.7036E-01
     1973.000       53.879       46.121        0.463       99.537   3.6875E-01   1.2115E-01   1.7003E-01
     1973.000       53.979       46.021        0.464       99.536   3.7008E-01   1.2082E-01   1.6970E-01
     1973.000       54.079       45.921        0.465       99.535   3.7141E-01   1.2048E-01   1.6937E-01
     1973.000       54.178       45.822        0.466       99.534   3.7274E-01   1.2015E-01   1.6903E-01
     1973.000       54.278       45.722        0.467       99.533   3.7407E-01   1.1982E-01   1.6870E-01
     1973.000       54.378       45.622        0.468       99.532   3.7540E-01   1.1949E-01   1.6837E-01
     1973.000       54.477       45.523        0.469       99.531   3.7673E-01   1.1916E-01   1.6804E-01
     1973.000       54.577       45.423        0.470       99.530   3.7806E-01   1.1883E-01   1.6770E-01
     1973.000       54.676       45.324        0.471       99.529   3.7939E-01   1.1850E-01   1.6737E-01
     1973.000       54.776       45.224        0.472       99.528   3.8072E-01   1.1818E-01   1.6703E-01
     1973.000       54.875       45.125        0.473       99.527   3.8205E-01   1.1786E-01   1.6670E-01
     1973.000       54.975       45.025        0.474       99.526   3.8338E-01   1.1753E-01   1.6636E-01
     1973.000       55.074       44.926        0.475       99.525   3.8471E-01   1.1721E-01   1.6603E-01
     1973.000       55.173       44.827        0.476       99.524   3.8603E-01   1.1689E-01   1.6569E-01
     1973.000       55.272       44.728        0.477       99.523   3.8736E-01   1.1657E-01   1.6535E-01
     1973.000       55.371       44.629        0.478       99.522   3.8869E-01   1.1625E-01   1.6502E-01
     1973.000       55.470       44.530        0.479       99.521   3.9001E-01   1.1594E-01   1.6468E-01
     1973.000       55.569       44.431        0.480       99.520   3.9134E-01   1.1562E-01   1.6434E-01
     1973.000       55.668       44.332        0.481       99.519   3.9267E-01   1.1531E-01   1.6401E-01
     1973.000       55.767       44.233        0.482       99.518   3.9399E-01   1.1500E-01   1.6367E-01
     1973.000       55.866       44.134        0.483       99.517   3.9532E-01   1.1468E-01   1.6333E-01
     1973.000       55.964       44.036        0.484       99.516   3.9664E-01   1.1437E-01   1.6299E-01
     1973.000       56.063       43.937        0.485       99.515   3.9797E-01   1.1406E-01   1.6265E-01
     1973.000       56.162       43.838        0.486       99.514   3.9929E-01   1.1376E-01   1.6232E-01
     1973.000       56.260       43.740        0.487       99.513   4.0062E-01   1.1345E-01   1.6198E-01
     1973.000       56.359       43.641        0.488       99.512   4.0194E-01   1.1314E-01   1.6164E-01
     1973.000       56.457       43.543        0.489       99.511   4.0327E-01   1.1284E-01   1.6130E-01
     1973.000       56.555       43.445        0.490       99.510   4.0459E-01   1.1254E-01   1.6096E-01
     1973.000       56.654       43.346        0.491       99.509   4.0591E-01   1.1223E-01   1.6062E-01
     1973.000       56.752       43.248        0.492       99.508   4.0724E-01   1.1193E-01   1.6028E-01
     1973.000       56.850       43.150        0.493       99.507   4.0856E-01   1.1163E-01   1.5994E-01
     1973.000       56.948       43.052        0.494       99.506   4.0988E-01   1.1133E-01   1.5959E-01
     1973.000       57.046       42.954        0.495       99.505   4.1120E-01   1.1103E-01   1.5925E-01
     1973.000       57.144       42.856        0.496       99.504   4.1253E-01   1.1074E-01   1.5891E-01
     1973.000       57.242       42.758        0.497       99.503   4.1385E-01   1.1044E-01   1.5857E-01
     1973.000       57.340       42.660        0.498       99.502   4.1517E-01   1.1015E-01   1.5823E-01
     1973.000       57.438       42.562        0.499       99.501   4.1649E-01   1.0985E-01   1.5789E-01
     1973.000       57.536       42.464        0.500       99.500   4.1780E-01   1.0956E-01   1.5754E-01
     1973.000       57.633       42.367        0.501       99.499   4.1912E-01   1.0927E-01   1.5720E-01
     1973.000       57.731       42.269        0.502       99.498   4.2044E-01   1.0898E-01   1.5686E-01
     1973.000       57.828       42.172        0.503       99.497   4.2176E-01   1.0869E-01   1.5651E-01
     1973.000       57.926       42.074        0.504       99.496   4.2308E-01   1.0840E-01   1.5617E-01
     1973.000       58.023       41.977        0.505       99.495   4.2440E-01   1.0811E-01   1.5583E-01
     1973.000       58.121       41.879        0.506       99.494   4.2572E-01   1.0783E-01   1.5548E-01
     1973.000       58.218       41.782        0.507       99.493   4.2704E-01   1.0754E-01   1.5514E-01
     1973.000       58.315       41.685        0.508       99.492   4.2835E-01   1.0726E-01   1.5480E-01
     1973.000       58.413       41.587        0.509       99.491   4.2967E-01   1.0697E-01   1.5445E-01
     1973.000       58.510       41.490        0.510       99.490   4.3099E-01   1.0669E-01   1.5411E-01
     1973.000       58.607       41.393        0.511       99.489   4.3230E-01   1.0641E-01   1.5376E-01
     1973.000       58.704       41.296        0.512       99.488   4.3362E-01   1.0613E-01   1.5342E-01
     1973.000       58.801       41.199        0.513       99.487   4.3493E-01   1.0585E-01   1.5307E-01
     1973.000       58.898       41.102        0.514       99.486   4.3625E-01   1.0557E-01   1.5273E-01
     1973.000       58.995       41.005        0.515       99.485   4.3756E-01   1.0529E-01   1.5238E-01
     1973.000       59.092       40.908        0.516       99.484   4.3887E-01   1.0501E-01   1.5204E-01
     1973.000       59.188       40.812        0.517       99.483   4.4019E-01   1.0474E-01   1.5169E-01
     1973.000       59.285       40.715        0.518       99.482   4.4150E-01   1.0446E-01   1.5134E-01
     1973.000       59.382       40.618        0.519       99.481   4.4282E-01   1.0419E-01   1.5100E-01
     1973.000       59.478       40.522        0.520       99.480   4.4413E-01   1.0391E-01   1.5065E-01
     1973.000       59.575       40.425        0.521       99.479   4.4544E-01   1.0364E-01   1.5031E-01
     1973.000       59.671       40.329        0.522       99.478   4.4675E-01   1.0337E-01   1.4996E-01
     1973.000       59.768       40.232        0.523       99.477   4.4806E-01   1.0310E-01   1.4961E-01
     1973.000       59.864       40.136        0.524       99.476   4.4937E-01   1.0283E-01   1.4927E-01
     1973.000       59.960       40.040        0.525       99.475   4.5068E-01   1.0256E-01   1.4892E-01
     1973.000       60.057       39.943        0.526       99.474   4.5199E-01   1.0229E-01   1.4857E-01
     1973.000       60.153       39.847        0.527       99.473   4.5330E-01   1.0203E-01   1.4822E-01
     1973.000       60.249       39.751        0.528       99.472   4.5461E-01   1.0176E-01   1.4788E-01
     1973.000       60.345       39.655        0.529       99.471   4.5592E-01   1.0149E-01   1.4753E-01
     1973.000       60.441       39.559        0.530       99.470   4.5722E-01   1.0123E-01   1.4718E-01
     1973.000       60.537       39.463        0.531       99.469   4.5853E-01   1.0097E-01   1.4683E-01
     1973.000       60.633       39.367        0.532       99.468   4.5984E-01   1.0070E-01   1.4649E-01
     1973.000       60.729       39.271        0.533       99.467   4.6114E-01   1.0044E-01   1.4614E-01
     1973.000       60.825       39.175        0.534       99.466   4.6245E-01   1.0018E-01   1.4579E-01
     1973.000       60.920       39.080        0.535       99.465   4.6376E-01   9.9917E-02   1.4544E-01
     1973.000       61.016       38.984        0.536       99.464   4.6506E-01   9.9658E-02   1.4509E-01
     1973.000       61.112       38.888        0.537       99.463   4.6637E-01   9.9398E-02   1.4474E-01
     1973.000       61.207       38.793        0.538       99.462   4.6767E-01   9.9140E-02   1.4440E-01
     1973.000       61.303       38.697        0.539       99.461   4.6898E-01   9.8882E-02   1.4405E-01
     1973.000       61.398       38.602        0.540       99.460   4.7028E-01   9.8625E-02   1.4370E-01
     1973.000       61.493       38.507        0.541       99.459   4.7158E-01   9.8369E-02   1.4335E-01
     1973.000       61.589       38.411        0.542       99.458   4.7289E-01   9.8114E-02   1.4300E-01
     1973.000       61.684       38.316        0.543       99.457   4.7419E-01   9.7860E-02   1.4265E-01
     1973.000       61.779       38.221        0.544       99.456   4.7549E-01   9.7606E-02   1.4230E-01
     1973.000       61.874       38.126        0.545       99.455   4.7679E-01   9.7353E-02   1.4195E-01
     1973.000       61.970       38.030        0.546       99.454   4.7809E-01   9.7101E-02   1.4160E-01
     1973.000       62.065       37.935        0.547       99.453   4.7938E-01   9.6850E-02   1.4125E-01
     1973.000       62.160       37.840        0.548       99.452   4.8068E-01   9.6599E-02   1.4090E-01
     1973.000       62.255       37.745        0.549       99.451   4.8198E-01   9.6349E-02   1.4055E-01
     1973.000       62.349       37.651        0.550       99.450   4.8328E-01   9.6100E-02   1.4020E-01
     1973.000       62.444       37.556        0.551       99.449   4.8458E-01   9.5851E-02   1.3985E-01
     1973.000       62.539       37.461        0.552       99.448   4.8588E-01   9.5603E-02   1.3950E-01
     1973.000       62.634       37.366        0.553       99.447   4.8717E-01   9.5356E-02   1.3915E-01
     1973.000       62.728       37.272        0.554       99.446   4.8847E-01   9.5110E-02   1.3880E-01
     1973.000       62.823       37.177        0.555       99.445   4.8977E-01   9.4864E-02   1.3845E-01
     1973.000       62.917       37.083        0.556       99.444   4.9106E-01   9.4619E-02   1.3810E-01
     1973.000       63.012       36.988        0.557       99.443   4.9236E-01   9.4374E-02   1.3775E-01
     1973.000       63.106       36.894        0.558       99.442   4.9365E-01   9.4131E-02   1.3740E-01
     1973.000       63.201       36.799        0.559       99.441   4.9495E-01   9.3888E-02   1.3705E-01
     1973.000       63.295       36.705        0.560       99.440   4.9624E-01   9.3645E-02   1.3670E-01
     1973.000       63.389       36.611        0.561       99.439   4.9753E-01   9.3403E-02   1.3635E-01
     1973.000       63.484       36.516        0.562       99.438   4.9883E-01   9.3162E-02   1.3600E-01
     1973.000       63.578       36.422        0.563       99.437   5.0012E-01   9.2922E-02   1.3565E-01
     1973.000       63.672       36.328        0.564       99.436   5.0141E-01   9.2682E-02   1.3530E-01
     1973.000       63.766       36.234        0.565       99.435   5.0270E-01   9.2443E-02   1.3495E-01
     1973.000       63.860       36.140        0.566       99.434   5.0400E-01   9.2204E-02   1.3460E-01
     1973.000       63.954       36.046        0.567       99.433   5.0529E-01   9.1966E-02   1.3425E-01
     1973.000       64.048       35.952        0.568       99.432   5.0657E-01   9.1729E-02   1.3390E-01
     1973.000       64.141       35.859        0.569       99.431   5.0786E-01   9.1493E-02   1.3355E-01
     1973.000       64.235       35.765        0.570       99.430   5.0915E-01   9.1257E-02   1.3320E-01
     1973.000       64.329       35.671        0.571       99.429   5.1044E-01   9.1021E-02   1.3285E-01
     1973.000       64.423       35.577        0.572       99.428   5.1173E-01   9.0787E-02   1.3249E-01
     1973.000       64.516       35.484        0.573       99.427   5.1301E-01   9.0553E-02   1.3214E-01
     1973.000       64.610       35.390        0.574       99.426   5.1430E-01   9.0320E-02   1.3179E-01
     1973.000       64.703       35.297        0.575       99.425   5.1558E-01   9.0087E-02   1.3144E-01
     1973.000       64.797       35.203        0.576       99.424   5.1687E-01   8.9855E-02   1.3109E-01
     1973.000       64.890       35.110        0.577       99.423   5.1815E-01   8.9623E-02   1.3074E-01
     1973.000       64.983       35.017        0.578       99.422   5.1944E-01   8.9392E-02   1.3039E-01
     1973.000       65.077       34.923        0.579       99.421   5.2072E-01   8.9161E-02   1.3004E-01
     1973.000       65.170       34.830        0.580       99.420   5.2200E-01   8.8931E-02   1.2969E-01
     1973.000       65.263       34.737        0.581       99.419   5.2329E-01   8.8702E-02   1.2934E-01
     1973.000       65.356       34.644        0.582       99.418   5.2457E-01   8.8473E-02   1.2898E-01
     1973.000       65.449       34.551        0.583       99.417   5.2585E-01   8.8245E-02   1.2863E-01
     1973.000       65.542       34.458        0.584       99.416   5.2713E-01   8.8017E-02   1.2828E-01
     1973.000       65.635       34.365        0.585       99.415   5.2841E-01   8.7790E-02   1.2793E-01
     1973.000       65.728       34.272        0.586       99.414   5.2969E-01   8.7563E-02   1.2758E-01
     1973.000       65.821       34.179        0.587       99.413   5.3097E-01   8.7337E-02   1.2723E-01
     1973.000       65.913       34.087        0.588       99.412   5.3225E-01   8.7112E-02   1.2688E-01
     1973.000       66.006       33.994        0.589       99.411   5.3353E-01   8.6887E-02   1.2653E-01
     1973.000       66.099       33.901        0.590       99.410   5.3481E-01   8.6662E-02   1.2618E-01
     1973.000       66.191       33.809        0.591       99.409   5.3609E-01   8.6438E-02   1.2582E-01
     1973.000       66.284       33.716        0.592       99.408   5.3736E-01   8.6215E-02   1.2547E-01
     1973.000       66.376       33.624        0.593       99.407   5.3864E-01   8.5992E-02   1.2512E-01
     1973.000       66.469       33.531        0.594       99.406   5.3992E-01   8.5770E-02   1.2477E-01
     1973.000       66.561       33.439        0.595       99.405   5.4119E-01   8.5548E-02   1.2442E-01
     1973.000       66.654       33.346        0.596       99.404   5.4246E-01   8.5327E-02   1.2407E-01
     1973.000       66.746       33.254        0.597       99.403   5.4374E-01   8.5107E-02   1.2372E-01
     1973.000       66.838       33.162        0.598       99.402   5.4501E-01   8.4886E-02   1.2337E-01
     1973.000       66.930       33.070        0.599       99.401   5.4628E-01   8.4667E-02   1.2302E-01
     1973.000       67.022       32.978        0.600       99.400   5.4756E-01   8.4448E-02   1.2266E-01
     1973.000       67.115       32.885        0.601       99.399   5.4883E-01   8.4229E-02   1.2231E-01
     1973.000       67.207       32.793        0.602       99.398   5.5009E-01   8.4011E-02   1.2196E-01
     1973.000       67.298       32.702        0.603       99.397   5.5136E-01   8.3794E-02   1.2161E-01
     1973.000       67.390       32.610        0.604       99.396   5.5263E-01   8.3577E-02   1.2126E-01
     1973.000       67.482       32.518        0.605       99.395   5.5390E-01   8.3360E-02   1.2091E-01
     1973.000       67.574       32.426        0.606       99.394   5.5517E-01   8.3144E-02   1.2056E-01
     1973.000       67.666       32.334        0.607       99.393   5.5644E-01   8.2928E-02   1.2021E-01
     1973.000       67.757       32.243        0.608       99.392   5.5771E-01   8.2713E-02   1.1986E-01
     1973.000       67.849       32.151        0.609       99.391   5.5898E-01   8.2498E-02   1.1951E-01
     1973.000       67.941       32.059        0.610       99.390   5.6024E-01   8.2283E-02   1.1916E-01
     1973.000       68.032       31.968        0.611       99.389   5.6151E-01   8.2070E-02   1.1881E-01
     1973.000       68.124       31.876        0.612       99.388   5.6278E-01   8.1856E-02   1.1845E-01
     1973.000       68.215       31.785        0.613       99.387   5.6404E-01   8.1643E-02   1.1810E-01
     1973.000       68.306       31.694        0.614       99.386   5.6530E-01   8.1431E-02   1.1775E-01
     1973.000       68.398       31.602        0.615       99.385   5.6657E-01   8.1219E-02   1.1740E-01
     1973.000       68.489       31.511        0.616       99.384   5.6783E-01   8.1007E-02   1.1705E-01
     1973.000       68.580       31.420        0.617       99.383   5.6910E-01   8.0795E-02   1.1670E-01
     1973.000       68.671       31.329        0.618       99.382   5.7036E-01   8.0585E-02   1.1635E-01
     1973.000       68.763       31.237        0.619       99.381   5.7162E-01   8.0374E-02   1.1600E-01
     1973.000       68.854       31.146        0.620       99.380   5.7288E-01   8.0165E-02   1.1565E-01
     1973.000       68.945       31.055        0.621       99.379   5.7414E-01   7.9955E-02   1.1530E-01
     1973.000       69.036       30.964        0.622       99.378   5.7540E-01   7.9746E-02   1.1495E-01
     1973.000       69.126       30.874        0.623       99.377   5.7666E-01   7.9538E-02   1.1460E-01
     1973.000       69.217       30.783        0.624       99.376   5.7792E-01   7.9330E-02   1.1425E-01
     1973.000       69.308       30.692        0.625       99.375   5.7918E-01   7.9122E-02   1.1390E-01
     1973.000       69.399       30.601        0.626       99.374   5.8044E-01   7.8915E-02   1.1355E-01
     1973.000       69.489       30.511        0.627       99.373   5.8169E-01   7.8708E-02   1.1320E-01
     1973.000       69.580       30.420        0.628       99.372   5.8295E-01   7.8501E-02   1.1285E-01
     1973.000       69.671       30.329        0.629       99.371   5.8420E-01   7.8295E-02   1.1250E-01
     1973.000       69.761       30.239        0.630       99.370   5.8546E-01   7.8090E-02   1.1215E-01
     1973.000       69.852       30.148        0.631       99.369   5.8671E-01   7.7884E-02   1.1180E-01
     1973.000       69.942       30.058        0.632       99.368   5.8797E-01   7.7679E-02   1.1145E-01
     1973.000       70.032       29.968        0.633       99.367   5.8921E-01   7.7476E-02   1.1110E-01
     1973.000       70.123       29.877        0.634       99.366   5.9047E-01   7.7272E-02   1.1075E-01
     1973.000       70.213       29.787        0.635       99.365   5.9172E-01   7.7068E-02   1.1040E-01
     1973.000       70.303       29.697        0.636       99.364   5.9297E-01   7.6865E-02   1.1005E-01
     1973.000       70.393       29.607        0.637       99.363   5.9422E-01   7.6662E-02   1.0970E-01
     1973.000       70.483       29.517        0.638       99.362   5.9547E-01   7.6459E-02   1.0935E-01
     1973.000       70.574       29.426        0.639       99.361   5.9672E-01   7.6257E-02   1.0900E-01
     1973.000       70.664       29.336        0.640       99.360   5.9797E-01   7.6055E-02   1.0866E-01
     1973.000       70.753       29.247        0.641       99.359   5.9922E-01   7.5854E-02   1.0831E-01
     1973.000       70.843       29.157        0.642       99.358   6.0047E-01   7.5653E-02   1.0796E-01
     1973.000       70.933       29.067        0.643       99.357   6.0172E-01   7.5452E-02   1.0761E-01
     1973.000       71.023       28.977        0.644       99.356   6.0296E-01   7.5252E-02   1.0726E-01
     1973.000       71.113       28.887        0.645       99.355   6.0421E-01   7.5052E-02   1.0691E-01
     1973.000       71.202       28.798        0.646       99.354   6.0545E-01   7.4852E-02   1.0656E-01
     1973.000       71.292       28.708        0.647       99.353   6.0670E-01   7.4652E-02   1.0621E-01
     1973.000       71.382       28.618        0.648       99.352   6.0795E-01   7.4454E-02   1.0587E-01
     1973.000       71.471       28.529        0.649       99.351   6.0919E-01   7.4255E-02   1.0552E-01
     1973.000       71.561       28.439        0.650       99.350   6.1044E-01   7.4057E-02   1.0517E-01
     1973.000       71.650       28.350        0.651       99.349   6.1168E-01   7.3859E-02   1.0482E-01
     1973.000       71.740       28.260        0.652       99.348   6.1292E-01   7.3662E-02   1.0447E-01
     1973.000       71.829       28.171        0.653       99.347   6.1416E-01   7.3464E-02   1.0412E-01
     1973.000       71.918       28.082        0.654       99.346   6.1540E-01   7.3268E-02   1.0378E-01
     1973.000       72.007       27.993        0.655       99.345   6.1664E-01   7.3071E-02   1.0343E-01
     1973.000       72.097       27.903        0.656       99.344   6.1788E-01   7.2875E-02   1.0308E-01
     1973.000       72.186       27.814        0.657       99.343   6.1912E-01   7.2679E-02   1.0273E-01
     1973.000       72.275       27.725        0.658       99.342   6.2036E-01   7.2483E-02   1.0239E-01
     1973.000       72.364       27.636        0.659       99.341   6.2160E-01   7.2288E-02   1.0204E-01
     1973.000       72.453       27.547        0.660       99.340   6.2283E-01   7.2093E-02   1.0169E-01
     1973.000       72.542       27.458        0.661       99.339   6.2407E-01   7.1899E-02   1.0134E-01
     1973.000       72.630       27.370        0.662       99.338   6.2531E-01   7.1705E-02   1.0100E-01
     1973.000       72.719       27.281        0.663       99.337   6.2654E-01   7.1511E-02   1.0065E-01
     1973.000       72.808       27.192        0.664       99.336   6.2778E-01   7.1317E-02   1.0030E-01
     1973.000       72.897       27.103        0.665       99.335   6.2901E-01   7.1124E-02   9.9955E-02
     1973.000       72.985       27.015        0.666       99.334   6.3024E-01   7.0931E-02   9.9608E-02
     1973.000       73.074       26.926        0.667       99.333   6.3147E-01   7.0739E-02   9.9262E-02
     1973.000       73.163       26.837        0.668       99.332   6.3270E-01   7.0546E-02   9.8915E-02
     1973.000       73.251       26.749        0.669       99.331   6.3393E-01   7.0354E-02   9.8569E-02
     1973.000       73.340       26.660        0.670       99.330   6.3517E-01   7.0162E-02   9.8222E-02
     1973.000       73.428       26.572        0.671       99.329   6.3640E-01   6.9971E-02   9.7876E-02
     1973.000       73.516       26.484        0.672       99.328   6.3763E-01   6.9780E-02   9.7530E-02
     1973.000       73.605       26.395        0.673       99.327   6.3885E-01   6.9589E-02   9.7184E-02
     1973.000       73.693       26.307        0.674       99.326   6.4008E-01   6.9398E-02   9.6838E-02
     1973.000       73.781       26.219        0.675       99.325   6.4131E-01   6.9207E-02   9.6492E-02
     1973.000       73.869       26.131        0.676       99.324   6.4254E-01   6.9017E-02   9.6146E-02
     1973.000       73.957       26.043        0.677       99.323   6.4377E-01   6.8828E-02   9.5800E-02
     1973.000       74.045       25.955        0.678       99.322   6.4500E-01   6.8638E-02   9.5454E-02
     1973.000       74.133       25.867        0.679       99.321   6.4622E-01   6.8448E-02   9.5109E-02
     1973.000       74.221       25.779        0.680       99.320   6.4745E-01   6.8259E-02   9.4764E-02
     1973.000       74.309       25.691        0.681       99.319   6.4867E-01   6.8071E-02   9.4419E-02
     1973.000       74.397       25.603        0.682       99.318   6.4990E-01   6.7882E-02   9.4074E-02
     1973.000       74.485       25.515        0.683       99.317   6.5112E-01   6.7694E-02   9.3729E-02
     1973.000       74.573       25.427        0.684       99.316   6.5234E-01   6.7506E-02   9.3384E-02
     1973.000       74.660       25.340        0.685       99.315   6.5356E-01   6.7318E-02   9.3039E-02
     1973.000       74.748       25.252        0.686       99.314   6.5478E-01   6.7131E-02   9.2695E-02
     1973.000       74.836       25.164        0.687       99.313   6.5600E-01   6.6944E-02   9.2350E-02
     1973.000       74.923       25.077        0.688       99.312   6.5722E-01   6.6757E-02   9.2006E-02
     1973.000       75.011       24.989        0.689       99.311   6.5844E-01   6.6570E-02   9.1662E-02
     1973.000       75.098       24.902        0.690       99.310   6.5966E-01   6.6383E-02   9.1318E-02
     1973.000       75.186       24.814        0.691       99.309   6.6088E-01   6.6197E-02   9.0974E-02
     1973.000       75.273       24.727        0.692       99.308   6.6210E-01   6.6011E-02   9.0630E-02
     1973.000       75.360       24.640        0.693       99.307   6.6331E-01   6.5826E-02   9.0286E-02
     1973.000       75.447       24.553        0.694       99.306   6.6453E-01   6.5640E-02   8.9943E-02
     1973.000       75.535       24.465        0.695       99.305   6.6575E-01   6.5455E-02   8.9600E-02
     1973.000       75.622       24.378        0.696       99.304   6.6696E-01   6.5270E-02   8.9256E-02
     1973.000       75.709       24.291        0.697       99.303   6.6817E-01   6.5085E-02   8.8913E-02
     1973.000       75.796       24.204        0.698       99.302   6.6939E-01   6.4900E-02   8.8570E-02
     1973.000       75.883       24.117        0.699       99.301   6.7060E-01   6.4716E-02   8.8227E-02
     1973.000       75.970       24.030        0.700       99.300   6.7181E-01   6.4532E-02   8.7885E-02
     1973.000       76.057       23.943        0.701       99.299   6.7302E-01   6.4349E-02   8.7543E-02
     1973.000       76.144       23.856        0.702       99.298   6.7423E-01   6.4165E-02   8.7200E-02
     1973.000       76.231       23.769        0.703       99.297   6.7544E-01   6.3981E-02   8.6858E-02
     1973.000       76.317       23.683        0.704       99.296   6.7665E-01   6.3798E-02   8.6516E-02
     1973.000       76.404       23.596        0.705       99.295   6.7786E-01   6.3615E-02   8.6174E-02
     1973.000       76.491       23.509        0.706       99.294   6.7907E-01   6.3432E-02   8.5832E-02
     1973.000       76.577       23.423        0.707       99.293   6.8027E-01   6.3250E-02   8.5490E-02
     1973.000       76.664       23.336        0.708       99.292   6.8148E-01   6.3067E-02   8.5148E-02
     1973.000       76.750       23.250        0.709       99.291   6.8269E-01   6.2885E-02   8.4807E-02
     1973.000       76.837       23.163        0.710       99.290   6.8389E-01   6.2703E-02   8.4466E-02
     1973.000       76.923       23.077        0.711       99.289   6.8510E-01   6.2521E-02   8.4124E-02
     1973.000       77.010       22.990        0.712       99.288   6.8631E-01   6.2339E-02   8.3783E-02
     1973.000       77.096       22.904        0.713       99.287   6.8751E-01   6.2158E-02   8.3442E-02
     1973.000       77.182       22.818        0.714       99.286   6.8872E-01   6.1976E-02   8.3101E-02
     1973.000       77.268       22.732        0.715       99.285   6.8992E-01   6.1795E-02   8.2761E-02
     1973.000       77.355       22.645        0.716       99.284   6.9112E-01   6.1614E-02   8.2420E-02
     1973.000       77.441       22.559        0.717       99.283   6.9232E-01   6.1434E-02   8.2080E-02
     1973.000       77.527       22.473        0.718       99.282   6.9353E-01   6.1253E-02   8.1740E-02
     1973.000       77.613       22.387        0.719       99.281   6.9473E-01   6.1073E-02   8.1400E-02
     1973.000       77.699       22.301        0.720       99.280   6.9593E-01   6.0893E-02   8.1060E-02
     1973.000       77.785       22.215        0.721       99.279   6.9712E-01   6.0713E-02   8.0721E-02
     1973.000       77.871       22.129        0.722       99.278   6.9832E-01   6.0533E-02   8.0381E-02
     1973.000       77.956       22.044        0.723       99.277   6.9952E-01   6.0353E-02   8.0042E-02
     1973.000       78.042       21.958        0.724       99.276   7.0072E-01   6.0174E-02   7.9703E-02
     1973.000       78.128       21.872        0.725       99.275   7.0191E-01   5.9994E-02   7.9364E-02
     1973.000       78.214       21.786        0.726       99.274   7.0311E-01   5.9815E-02   7.9025E-02
     1973.000       78.299       21.701        0.727       99.273   7.0430E-01   5.9636E-02   7.8686E-02
     1973.000       78.385       21.615        0.728       99.272   7.0550E-01   5.9457E-02   7.8347E-02
     1973.000       78.470       21.530        0.729       99.271   7.0669E-01   5.9279E-02   7.8009E-02
     1973.000       78.556       21.444        0.730       99.270   7.0789E-01   5.9100E-02   7.7671E-02
     1973.000       78.641       21.359        0.731       99.269   7.0908E-01   5.8922E-02   7.7333E-02
     1973.000       78.727       21.273        0.732       99.268   7.1027E-01   5.8744E-02   7.6995E-02
     1973.000       78.812       21.188        0.733       99.267   7.1146E-01   5.8566E-02   7.6657E-02
     1973.000       78.897       21.103        0.734       99.266   7.1265E-01   5.8388E-02   7.6320E-02
     1973.000       78.983       21.017        0.735       99.265   7.1384E-01   5.8210E-02   7.5982E-02
     1973.000       79.068       20.932        0.736       99.264   7.1503E-01   5.8032E-02   7.5645E-02
     1973.000       79.153       20.847        0.737       99.263   7.1621E-01   5.7855E-02   7.5309E-02
     1973.000       79.238       20.762        0.738       99.262   7.1740E-01   5.7678E-02   7.4972E-02
     1973.000       79.323       20.677        0.739       99.261   7.1859E-01   5.7501E-02   7.4635E-02
     1973.000       79.408       20.592        0.740       99.260   7.1977E-01   5.7324E-02   7.4299E-02
     1973.000       79.493       20.507        0.741       99.259   7.2096E-01   5.7147E-02   7.3962E-02
     1973.000       79.578       20.422        0.742       99.258   7.2215E-01   5.6970E-02   7.3626E-02
     1973.000       79.663       20.337        0.743       99.257   7.2333E-01   5.6793E-02   7.3290E-02
     1973.000       79.748       20.252        0.744       99.256   7.2451E-01   5.6617E-02   7.2954E-02
     1973.000       79.832       20.168        0.745       99.255   7.2570E-01   5.6440E-02   7.2619E-02
     1973.000       79.917       20.083        0.746       99.254   7.2688E-01   5.6264E-02   7.2283E-02
     1973.000       80.002       19.998        0.747       99.253   7.2807E-01   5.6087E-02   7.1947E-02
     1973.000       80.086       19.914        0.748       99.252   7.2925E-01   5.5911E-02   7.1612E-02
     1973.000       80.171       19.829        0.749       99.251   7.3043E-01   5.5735E-02   7.1277E-02
     1973.000       80.256       19.744        0.750       99.250   7.3161E-01   5.5559E-02   7.0943E-02
     1973.000       80.340       19.660        0.751       99.249   7.3279E-01   5.5383E-02   7.0608E-02
     1973.000       80.425       19.575        0.752       99.248   7.3397E-01   5.5208E-02   7.0274E-02
     1973.000       80.509       19.491        0.753       99.247   7.3515E-01   5.5032E-02   6.9939E-02
     1973.000       80.593       19.407        0.754       99.246   7.3633E-01   5.4857E-02   6.9605E-02
     1973.000       80.678       19.322        0.755       99.245   7.3750E-01   5.4681E-02   6.9272E-02
     1973.000       80.762       19.238        0.756       99.244   7.3868E-01   5.4506E-02   6.8938E-02
     1973.000       80.846       19.154        0.757       99.243   7.3985E-01   5.4331E-02   6.8605E-02
     1973.000       80.930       19.070        0.758       99.242   7.4103E-01   5.4156E-02   6.8271E-02
     1973.000       81.014       18.986        0.759       99.241   7.4220E-01   5.3981E-02   6.7938E-02
     1973.000       81.098       18.902        0.760       99.240   7.4338E-01   5.3806E-02   6.7605E-02
     1973.000       81.182       18.818        0.761       99.239   7.4455E-01   5.3631E-02   6.7273E-02
     1973.000       81.266       18.734        0.762       99.238   7.4572E-01   5.3456E-02   6.6940E-02
     1973.000       81.350       18.650        0.763       99.237   7.4689E-01   5.3282E-02   6.6608E-02
     1973.000       81.434       18.566        0.764       99.236   7.4806E-01   5.3107E-02   6.6276E-02
     1973.000       81.518       18.482        0.765       99.235   7.4923E-01   5.2932E-02   6.5944E-02
     1973.000       81.602       18.398        0.766       99.234   7.5040E-01   5.2758E-02   6.5612E-02
     1973.000       81.685       18.315        0.767       99.233   7.5157E-01   5.2584E-02   6.5281E-02
     1973.000       81.769       18.231        0.768       99.232   7.5274E-01   5.2409E-02   6.4950E-02
     1973.000       81.853       18.147        0.769       99.231   7.5391E-01   5.2235E-02   6.4618E-02
     1973.000       81.936       18.064        0.770       99.230   7.5508E-01   5.2061E-02   6.4288E-02
     1973.000       82.020       17.980        0.771       99.229   7.5624E-01   5.1887E-02   6.3957E-02
     1973.000       82.103       17.897        0.772       99.228   7.5741E-01   5.1713E-02   6.3626E-02
     1973.000       82.187       17.813        0.773       99.227   7.5857E-01   5.1539E-02   6.3296E-02
     1973.000       82.270       17.730        0.774       99.226   7.5973E-01   5.1365E-02   6.2967E-02
     1973.000       82.354       17.646        0.775       99.225   7.6089E-01   5.1191E-02   6.2637E-02
     1973.000       82.437       17.563        0.776       99.224   7.6205E-01   5.1017E-02   6.2307E-02
     1973.000       82.520       17.480        0.777       99.223   7.6322E-01   5.0844E-02   6.1978E-02
     1973.000       82.604       17.396        0.778       99.222   7.6438E-01   5.0670E-02   6.1648E-02
     1973.000       82.687       17.313        0.779       99.221   7.6554E-01   5.0496E-02   6.1319E-02
     1973.000       82.770       17.230        0.780       99.220   7.6670E-01   5.0322E-02   6.0990E-02
     1973.000       82.853       17.147        0.781       99.219   7.6786E-01   5.0149E-02   6.0662E-02
     1973.000       82.936       17.064        0.782       99.218   7.6902E-01   4.9975E-02   6.0333E-02
     1973.000       83.019       16.981        0.783       99.217   7.7018E-01   4.9801E-02   6.0005E-02
     1973.000       83.102       16.898        0.784       99.216   7.7134E-01   4.9628E-02   5.9677E-02
     1973.000       83.185       16.815        0.785       99.215   7.7250E-01   4.9454E-02   5.9349E-02
     1973.000       83.268       16.732        0.786       99.214   7.7365E-01   4.9281E-02   5.9022E-02
     1973.000       83.350       16.650        0.787       99.213   7.7481E-01   4.9107E-02   5.8694E-02
     1973.000       83.433       16.567        0.788       99.212   7.7596E-01   4.8934E-02   5.8367E-02
     1973.000       83.516       16.484        0.789       99.211   7.7712E-01   4.8760E-02   5.8040E-02
     1973.000       83.599       16.401        0.790       99.210   7.7827E-01   4.8587E-02   5.7714E-02
     1973.000       83.681       16.319        0.791       99.209   7.7942E-01   4.8413E-02   5.7387E-02
     1973.000       83.764       16.236        0.792       99.208   7.8058E-01   4.8240E-02   5.7061E-02
     1973.000       83.846       16.154        0.793       99.207   7.8173E-01   4.8066E-02   5.6735E-02
     1973.000       83.929       16.071        0.794       99.206   7.8288E-01   4.7893E-02   5.6409E-02
     1973.000       84.011       15.989        0.795       99.205   7.8403E-01   4.7720E-02   5.6084E-02
     1973.000       84.094       15.906        0.796       99.204   7.8518E-01   4.7546E-02   5.5759E-02
     1973.000       84.176       15.824        0.797       99.203   7.8633E-01   4.7373E-02   5.5434E-02
     1973.000       84.258       15.742        0.798       99.202   7.8747E-01   4.7199E-02   5.5109E-02
     1973.000       84.341       15.659        0.799       99.201   7.8862E-01   4.7026E-02   5.4784E-02
     1973.000       84.423       15.577        0.800       99.200   7.8977E-01   4.6852E-02   5.4460E-02
     1973.000       84.505       15.495        0.801       99.199   7.9091E-01   4.6679E-02   5.4136E-02
     1973.000       84.587       15.413        0.802       99.198   7.9206E-01   4.6505E-02   5.3812E-02
     1973.000       84.669       15.331        0.803       99.197   7.9320E-01   4.6332E-02   5.3488E-02
     1973.000       84.751       15.249        0.804       99.196   7.9435E-01   4.6158E-02   5.3165E-02
     1973.000       84.833       15.167        0.805       99.195   7.9549E-01   4.5985E-02   5.2842E-02
     1973.000       84.915       15.085        0.806       99.194   7.9663E-01   4.5811E-02   5.2519E-02
     1973.000       84.997       15.003        0.807       99.193   7.9777E-01   4.5638E-02   5.2196E-02
     1973.000       85.079       14.921        0.808       99.192   7.9891E-01   4.5464E-02   5.1874E-02
     1973.000       85.161       14.839        0.809       99.191   8.0005E-01   4.5290E-02   5.1552E-02
     1973.000       85.242       14.758        0.810       99.190   8.0119E-01   4.5116E-02   5.1230E-02
     1973.000       85.324       14.676        0.811       99.189   8.0232E-01   4.4943E-02   5.0908E-02
     1973.000       85.406       14.594        0.812       99.188   8.0346E-01   4.4769E-02   5.0587E-02
     1973.000       85.487       14.513        0.813       99.187   8.0460E-01   4.4595E-02   5.0266E-02
     1973.000       85.569       14.431        0.814       99.186   8.0574E-01   4.4421E-02   4.9945E-02
     1973.000       85.651       14.349        0.815       99.185   8.0687E-01   4.4247E-02   4.9624E-02
     1973.000       85.732       14.268        0.816       99.184   8.0801E-01   4.4073E-02   4.9304E-02
     1973.000       85.814       14.186        0.817       99.183   8.0915E-01   4.3899E-02   4.8983E-02
     1973.000       85.895       14.105        0.818       99.182   8.1028E-01   4.3724E-02   4.8663E-02
     1973.000       85.976       14.024        0.819       99.181   8.1142E-01   4.3550E-02   4.8344E-02
     1973.000       86.058       13.942        0.820       99.180   8.1255E-01   4.3376E-02   4.8024E-02
     1973.000       86.139       13.861        0.821       99.179   8.1368E-01   4.3201E-02   4.7705E-02
     1973.000       86.220       13.780        0.822       99.178   8.1481E-01   4.3027E-02   4.7386E-02
     1973.000       86.301       13.699        0.823       99.177   8.1594E-01   4.2852E-02   4.7068E-02
     1973.000       86.382       13.618        0.824       99.176   8.1707E-01   4.2678E-02   4.6749E-02
     1973.000       86.464       13.536        0.825       99.175   8.1820E-01   4.2503E-02   4.6431E-02
     1973.000       86.545       13.455        0.826       99.174   8.1933E-01   4.2328E-02   4.6113E-02
     1973.000       86.626       13.374        0.827       99.173   8.2046E-01   4.2153E-02   4.5796E-02
     1973.000       86.707       13.293        0.828       99.172   8.2158E-01   4.1978E-02   4.5479E-02
     1973.000       86.787       13.213        0.829       99.171   8.2271E-01   4.1803E-02   4.5162E-02
     1973.000       86.868       13.132        0.830       99.170   8.2384E-01   4.1627E-02   4.4845E-02
     1973.000       86.949       13.051        0.831       99.169   8.2496E-01   4.1452E-02   4.4529E-02
     1973.000       87.030       12.970        0.832       99.168   8.2609E-01   4.1276E-02   4.4212E-02
     1973.000       87.111       12.889        0.833       99.167   8.2721E-01   4.1101E-02   4.3897E-02
     1973.000       87.191       12.809        0.834       99.166   8.2833E-01   4.0925E-02   4.3581E-02
     1973.000       87.272       12.728        0.835       99.165   8.2945E-01   4.0749E-02   4.3266E-02
     1973.000       87.353       12.647        0.836       99.164   8.3057E-01   4.0573E-02   4.2951E-02
     1973.000       87.433       12.567        0.837       99.163   8.3169E-01   4.0397E-02   4.2636E-02
     1973.000       87.514       12.486        0.838       99.162   8.3281E-01   4.0221E-02   4.2322E-02
     1973.000       87.594       12.406        0.839       99.161   8.3393E-01   4.0044E-02   4.2007E-02
     1973.000       87.675       12.325        0.840       99.160   8.3505E-01   3.9868E-02   4.1694E-02
     1973.000       87.755       12.245        0.841       99.159   8.3617E-01   3.9691E-02   4.1380E-02
     1973.000       87.835       12.165        0.842       99.158   8.3728E-01   3.9514E-02   4.1067E-02
     1973.000       87.916       12.084        0.843       99.157   8.3840E-01   3.9337E-02   4.0754E-02
     1973.000       87.996       12.004        0.844       99.156   8.3952E-01   3.9160E-02   4.0441E-02
     1973.000       88.076       11.924        0.845       99.155   8.4063E-01   3.8982E-02   4.0129E-02
     1973.000       88.156       11.844        0.846       99.154   8.4173E-01   3.8805E-02   3.9817E-02
     1973.000       88.236       11.764        0.847       99.153   8.4285E-01   3.8627E-02   3.9505E-02
     1973.000       88.316       11.684        0.848       99.152   8.4396E-01   3.8450E-02   3.9194E-02
     1973.000       88.396       11.604        0.849       99.151   8.4507E-01   3.8271E-02   3.8883E-02
     1973.000       88.476       11.524        0.850       99.150   8.4619E-01   3.8093E-02   3.8572E-02
     1973.000       88.556       11.444        0.851       99.149   8.4730E-01   3.7914E-02   3.8261E-02
     1973.000       88.636       11.364        0.852       99.148   8.4841E-01   3.7736E-02   3.7951E-02
     1973.000       88.716       11.284        0.853       99.147   8.4952E-01   3.7557E-02   3.7641E-02
     1973.000       88.796       11.204        0.854       99.146   8.5063E-01   3.7378E-02   3.7332E-02
     1973.000       88.876       11.124        0.855       99.145   8.5173E-01   3.7198E-02   3.7023E-02
     1973.000       88.955       11.045        0.856       99.144   8.5284E-01   3.7019E-02   3.6714E-02
     1973.000       89.035       10.965        0.857       99.143   8.5394E-01   3.6839E-02   3.6405E-02
     1973.000       89.115       10.885        0.858       99.142   8.5505E-01   3.6659E-02   3.6097E-02
     1973.000       89.194       10.806        0.859       99.141   8.5615E-01   3.6479E-02   3.5789E-02
     1973.000       89.274       10.726        0.860       99.140   8.5726E-01   3.6298E-02   3.5482E-02
     1973.000       89.353       10.647        0.861       99.139   8.5836E-01   3.6118E-02   3.5174E-02
     1973.000       89.433       10.567        0.862       99.138   8.5946E-01   3.5937E-02   3.4867E-02
     1973.000       89.512       10.488        0.863       99.137   8.6056E-01   3.5756E-02   3.4561E-02
     1973.000       89.592       10.408        0.864       99.136   8.6166E-01   3.5574E-02   3.4255E-02
     1973.000       89.671       10.329        0.865       99.135   8.6276E-01   3.5392E-02   3.3949E-02
     1973.000       89.750       10.250        0.866       99.134   8.6386E-01   3.5210E-02   3.3643E-02
     1973.000       89.830       10.170        0.867       99.133   8.6496E-01   3.5028E-02   3.3338E-02
     1973.000       89.909       10.091        0.868       99.132   8.6605E-01   3.4846E-02   3.3034E-02
     1973.000       89.988       10.012        0.869       99.131   8.6715E-01   3.4663E-02   3.2729E-02
     1973.000       90.067        9.933        0.870       99.130   8.6824E-01   3.4480E-02   3.2425E-02
     1973.000       90.146        9.854        0.871       99.129   8.6934E-01   3.4296E-02   3.2121E-02
     1973.000       90.225        9.775        0.872       99.128   8.7043E-01   3.4112E-02   3.1818E-02
     1973.000       90.304        9.696        0.873       99.127   8.7153E-01   3.3928E-02   3.1515E-02
     1973.000       90.383        9.617        0.874       99.126   8.7262E-01   3.3744E-02   3.1213E-02
     1973.000       90.462        9.538        0.875       99.125   8.7371E-01   3.3559E-02   3.0910E-02
     1973.000       90.541        9.459        0.876       99.124   8.7480E-01   3.3374E-02   3.0609E-02
     1973.000       90.620        9.380        0.877       99.123   8.7588E-01   3.3189E-02   3.0308E-02
     1973.000       90.698        9.302        0.878       99.122   8.7697E-01   3.3003E-02   3.0006E-02
     1973.000       90.777        9.223        0.879       99.121   8.7806E-01   3.2817E-02   2.9706E-02
     1973.000       90.856        9.144        0.880       99.120   8.7915E-01   3.2630E-02   2.9405E-02
     1973.000       90.935        9.065        0.881       99.119   8.8024E-01   3.2444E-02   2.9105E-02
     1973.000       91.013        8.987        0.882       99.118   8.8132E-01   3.2256E-02   2.8806E-02
     1973.000       91.092        8.908        0.883       99.117   8.8241E-01   3.2069E-02   2.8507E-02
     1973.000       91.170        8.830        0.884       99.116   8.8349E-01   3.1881E-02   2.8208E-02
     1973.000       91.249        8.751        0.885       99.115   8.8458E-01   3.1692E-02   2.7910E-02
     1973.000       91.327        8.673        0.886       99.114   8.8566E-01   3.1504E-02   2.7612E-02
     1973.000       91.406        8.594        0.887       99.113   8.8674E-01   3.1314E-02   2.7315E-02
     1973.000       91.484        8.516        0.888       99.112   8.8782E-01   3.1125E-02   2.7018E-02
     1973.000       91.562        8.438        0.889       99.111   8.8890E-01   3.0935E-02   2.6721E-02
     1973.000       91.641        8.359        0.890       99.110   8.8998E-01   3.0744E-02   2.6425E-02
     1973.000       91.719        8.281        0.891       99.109   8.9106E-01   3.0553E-02   2.6130E-02
     1973.000       91.797        8.203        0.892       99.108   8.9213E-01   3.0362E-02   2.5834E-02
     1973.000       91.875        8.125        0.893       99.107   8.9321E-01   3.0170E-02   2.5540E-02
     1973.000       91.953        8.047        0.894       99.106   8.9429E-01   2.9978E-02   2.5245E-02
     1973.000       92.031        7.969        0.895       99.105   8.9536E-01   2.9785E-02   2.4952E-02
     1973.000       92.109        7.891        0.896       99.104   8.9643E-01   2.9591E-02   2.4658E-02
     1973.000       92.187        7.813        0.897       99.103   8.9751E-01   2.9397E-02   2.4365E-02
     1973.000       92.265        7.735        0.898       99.102   8.9858E-01   2.9203E-02   2.4073E-02
     1973.000       92.343        7.657        0.899       99.101   8.9965E-01   2.9008E-02   2.3781E-02
     1973.000       92.421        7.579        0.900       99.100   9.0072E-01   2.8813E-02   2.3489E-02
     1973.000       92.499        7.501        0.901       99.099   9.0179E-01   2.8617E-02   2.3198E-02
     1973.000       92.576        7.424        0.902       99.098   9.0286E-01   2.8420E-02   2.2908E-02
     1973.000       92.654        7.346        0.903       99.097   9.0392E-01   2.8223E-02   2.2618E-02
     1973.000       92.732        7.268        0.904       99.096   9.0499E-01   2.8025E-02   2.2328E-02
     1973.000       92.810        7.190        0.905       99.095   9.0605E-01   2.7827E-02   2.2039E-02
     1973.000       92.887        7.113        0.906       99.094   9.0712E-01   2.7628E-02   2.1751E-02
     1973.000       92.965        7.035        0.907       99.093   9.0818E-01   2.7428E-02   2.1463E-02
     1973.000       93.042        6.958        0.908       99.092   9.0925E-01   2.7228E-02   2.1175E-02
     1973.000       93.120        6.880        0.909       99.091   9.1031E-01   2.7027E-02   2.0888E-02
     1973.000       93.197        6.803        0.910       99.090   9.1137E-01   2.6825E-02   2.0602E-02
     1973.000       93.275        6.725        0.911       99.089   9.1243E-01   2.6623E-02   2.0316E-02
     1973.000       93.352        6.648        0.912       99.088   9.1349E-01   2.6420E-02   2.0031E-02
     1973.000       93.429        6.571        0.913       99.087   9.1455E-01   2.6217E-02   1.9746E-02
     1973.000       93.506        6.494        0.914       99.086   9.1560E-01   2.6012E-02   1.9462E-02
     1973.000       93.584        6.416        0.915       99.085   9.1666E-01   2.5807E-02   1.9178E-02
     1973.000       93.661        6.339        0.916       99.084   9.1771E-01   2.5601E-02   1.8895E-02
     1973.000       93.738        6.262        0.917       99.083   9.1877E-01   2.5395E-02   1.8613E-02
     1973.000       93.815        6.185        0.918       99.082   9.1982E-01   2.5187E-02   1.8331E-02
     1973.000       93.892        6.108        0.919       99.081   9.2087E-01   2.4979E-02   1.8050E-02
     1973.000       93.969        6.031        0.920       99.080   9.2192E-01   2.4770E-02   1.7769E-02
     1973.000       94.046        5.954        0.921       99.079   9.2297E-01   2.4560E-02   1.7489E-02
     1973.000       94.123        5.877        0.922       99.078   9.2402E-01   2.4349E-02   1.7210E-02
     1973.000       94.200        5.800        0.923       99.077   9.2507E-01   2.4138E-02   1.6931E-02
     1973.000       94.277        5.723        0.924       99.076   9.2611E-01   2.3925E-02   1.6653E-02
     1973.000       94.354        5.646        0.925       99.075   9.2716E-01   2.3712E-02   1.6376E-02
     1973.000       94.430        5.570        0.926       99.074   9.2820E-01   2.3498E-02   1.6099E-02
     1973.000       94.507        5.493        0.927       99.073   9.2925E-01   2.3282E-02   1.5823E-02
     1973.000       94.584        5.416        0.928       99.072   9.3028E-01   2.3066E-02   1.5548E-02
     1973.000       94.660        5.340        0.929       99.071   9.3133E-01   2.2848E-02   1.5273E-02
     1973.000       94.737        5.263        0.930       99.070   9.3237E-01   2.2630E-02   1.4999E-02
     1973.000       94.814        5.186        0.931       99.069   9.3341E-01   2.2411E-02   1.4726E-02
     1973.000       94.890        5.110        0.932       99.068   9.3445E-01   2.2190E-02   1.4454E-02
     1973.000       94.967        5.033        0.933       99.067   9.3548E-01   2.1968E-02   1.4182E-02
     1973.000       95.043        4.957        0.934       99.066   9.3652E-01   2.1746E-02   1.3912E-02
     1973.000       95.120        4.880        0.935       99.065   9.3755E-01   2.1522E-02   1.3641E-02
     1973.000       95.196        4.804        0.936       99.064   9.3859E-01   2.1296E-02   1.3372E-02
     1973.000       95.272        4.728        0.937       99.063   9.3962E-01   2.1070E-02   1.3104E-02
     1973.000       95.349        4.651        0.938       99.062   9.4065E-01   2.0842E-02   1.2836E-02
     1973.000       95.425        4.575        0.939       99.061   9.4168E-01   2.0613E-02   1.2570E-02
     1973.000       95.501        4.499        0.940       99.060   9.4271E-01   2.0383E-02   1.2304E-02
     1973.000       95.577        4.423        0.941       99.059   9.4373E-01   2.0152E-02   1.2039E-02
     1973.000       95.653        4.347        0.942       99.058   9.4476E-01   1.9918E-02   1.1775E-02
     1973.000       95.729        4.271        0.943       99.057   9.4578E-01   1.9684E-02   1.1511E-02
     1973.000       95.805        4.195        0.944       99.056   9.4680E-01   1.9448E-02   1.1249E-02
     1973.000       95.881        4.119        0.945       99.055   9.4783E-01   1.9210E-02   1.0988E-02
     1973.000       95.957        4.043        0.946       99.054   9.4883E-01   1.8972E-02   1.0728E-02
     1973.000       96.033        3.967        0.947       99.053   9.4986E-01   1.8731E-02   1.0468E-02
     1973.000       96.109        3.891        0.948       99.052   9.5088E-01   1.8488E-02   1.0210E-02
     1973.000       96.185        3.815        0.949       99.051   9.5190E-01   1.8244E-02   9.9531E-03
     1973.000       96.261        3.739        0.950       99.050   9.5291E-01   1.7998E-02   9.6970E-03
     1973.000       96.337        3.663        0.951       99.049   9.5392E-01   1.7751E-02   9.4421E-03
     1973.000       96.412        3.588        0.952       99.048   9.5493E-01   1.7501E-02   9.1882E-03
     1973.000       96.488        3.512        0.953       99.047   9.5594E-01   1.7250E-02   8.9356E-03
     1973.000       96.564        3.436        0.954       99.046   9.5695E-01   1.6996E-02   8.6841E-03
     1973.000       96.639        3.361        0.955       99.045   9.5796E-01   1.6741E-02   8.4338E-03
     1973.000       96.715        3.285        0.956       99.044   9.5896E-01   1.6483E-02   8.1849E-03
     1973.000       96.790        3.210        0.957       99.043   9.5996E-01   1.6224E-02   7.9372E-03
     1973.000       96.866        3.134        0.958       99.042   9.6097E-01   1.5962E-02   7.6908E-03
     1973.000       96.941        3.059        0.959       99.041   9.6197E-01   1.5697E-02   7.4459E-03
     1973.000       97.017        2.983        0.960       99.040   9.6296E-01   1.5430E-02   7.2023E-03
     1973.000       97.092        2.908        0.961       99.039   9.6396E-01   1.5161E-02   6.9602E-03
     1973.000       97.167        2.833        0.962       99.038   9.6495E-01   1.4889E-02   6.7196E-03
     1973.000       97.242        2.758        0.963       99.037   9.6594E-01   1.4614E-02   6.4806E-03
     1973.000       97.318        2.682        0.964       99.036   9.6693E-01   1.4337E-02   6.2432E-03
     1973.000       97.393        2.607        0.965       99.035   9.6792E-01   1.4056E-02   6.0074E-03
     1973.000       97.468        2.532        0.966       99.034   9.6891E-01   1.3773E-02   5.7734E-03
     1973.000       97.543        2.457        0.967       99.033   9.6989E-01   1.3486E-02   5.5411E-03
     1973.000       97.618        2.382        0.968       99.032   9.7087E-01   1.3196E-02   5.3108E-03
     1973.000       97.693        2.307        0.969       99.031   9.7185E-01   1.2902E-02   5.0823E-03
     1973.000       97.768        2.232        0.970       99.030   9.7283E-01   1.2605E-02   4.8558E-03
     1973.000       97.843        2.157        0.971       99.029   9.7380E-01   1.2305E-02   4.6315E-03
     1973.000       97.918        2.082        0.972       99.028   9.7477E-01   1.2000E-02   4.4092E-03
     1973.000       97.993        2.007        0.973       99.027   9.7574E-01   1.1691E-02   4.1893E-03
     1973.000       98.068        1.932        0.974       99.026   9.7671E-01   1.1378E-02   3.9717E-03
     1973.000       98.143        1.857        0.975       99.025   9.7767E-01   1.1060E-02   3.7566E-03
     1973.000       98.217        1.783        0.976       99.024   9.7863E-01   1.0737E-02   3.5441E-03
     1973.000       98.292        1.708        0.977       99.023   9.7959E-01   1.0409E-02   3.3344E-03
     1973.000       98.367        1.633        0.978       99.022   9.8054E-01   1.0076E-02   3.1275E-03
     1973.000       98.442        1.558        0.979       99.021   9.8149E-01   9.7377E-03   2.9236E-03
     1973.000       98.516        1.484        0.980       99.020   9.8244E-01   9.3930E-03   2.7229E-03
     1973.000       98.591        1.409        0.981       99.019   9.8338E-01   9.0420E-03   2.5256E-03
     1973.000       98.665        1.335        0.982       99.018   9.8432E-01   8.6841E-03   2.3319E-03
     1973.000       98.740        1.260        0.983       99.017   9.8525E-01   8.3191E-03   2.1420E-03
     1973.000       98.814        1.186        0.984       99.016   9.8619E-01   7.9463E-03   1.9561E-03
     1973.000       98.889        1.111        0.985       99.015   9.8711E-01   7.5652E-03   1.7747E-03
     1973.000       98.963        1.037        0.986       99.014   9.8803E-01   7.1751E-03   1.5979E-03
     1973.000       99.037        0.963        0.987       99.013   9.8895E-01   6.7753E-03   1.4261E-03
     1973.000       99.112        0.888        0.988       99.012   9.8986E-01   6.3650E-03   1.2598E-03
     1973.000       99.186        0.814        0.989       99.011   9.9076E-01   5.9433E-03   1.0994E-03
     1973.000       99.260        0.740        0.990       99.010   9.9165E-01   5.5091E-03   9.4543E-04
     1973.000       99.334        0.666        0.991       99.009   9.9254E-01   5.0610E-03   7.9861E-04
     1973.000       99.408        0.592        0.992       99.008   9.9342E-01   4.5975E-03   6.5963E-04
     1973.000       99.482        0.518        0.993       99.007   9.9429E-01   4.1170E-03   5.2942E-04
     1973.000       99.556        0.444        0.994       99.006   9.9516E-01   3.6172E-03   4.0903E-04
     1973.000       99.630        0.370        0.995       99.005   9.9601E-01   3.0955E-03   2.9981E-04
     1973.000       99.704        0.296        0.996       99.004   9.9684E-01   2.5486E-03   2.0339E-04
     1973.000       99.778        0.222        0.997       99.003   9.9766E-01   1.9721E-03   1.2189E-04
     1973.000       99.852        0.148        0.998       99.002   9.9847E-01   1.3607E-03   5.8074E-05
     1973.000       99.926        0.074        0.999       99.001   9.9925E-01   7.0687E-04   1.5684E-05
     1973.000      100.000        0.000        1.000       99.000   1.0000E+00   0.0000E+00   0.0000E+00
